Time (mS),Barometer Temp (C),IMU Temp (C),Pressure (hPA),Altitude (M),Gryo X (mDPS),Gryo Y (mDPS),Gryo Z (mDPS),Accel X (mG),Accel Y (mG),Accel Z (mG),
-3965,27.8,29.4,1025.34,0.06,-721,848,875,1005,10,12,
-3945,27.8,29.5,1025.34,0.05,-1023,1242,883,1003,9,20,
-3925,27.8,29.5,1025.34,0.04,-866,1347,971,1003,5,24,
-3905,27.8,29.5,1025.34,0.04,-345,1347,927,1002,3,26,
-3885,27.8,29.5,1025.34,0.02,74,1220,918,1002,7,29,
-3865,27.8,29.5,1025.35,-0.01,-459,1137,721,1003,-2,21,
-3845,27.8,29.6,1025.35,-0.01,-406,1264,498,1005,0,16,
-3826,27.8,29.5,1025.35,-0.01,-153,1544,371,1005,6,13,
-3805,27.8,29.6,1025.35,-0.00,507,1885,472,1005,7,13,
-3785,27.8,29.5,1025.34,0.03,446,2366,376,1001,-2,33,
-3764,27.8,29.5,1025.34,0.05,157,2165,87,1000,1,43,
-3745,27.8,29.5,1025.34,0.03,258,1666,-61,1000,7,48,
-3726,27.8,29.5,1025.34,0.05,297,1028,0,1001,8,44,
-3706,27.8,29.5,1025.34,0.07,-113,616,-70,1002,8,34,
-3686,27.8,29.5,1025.34,0.03,-660,485,-100,1004,10,25,
-3666,27.8,29.5,1025.34,0.04,-783,573,-52,1005,13,19,
-3646,27.8,29.5,1025.34,0.04,-507,813,135,1004,15,22,
-3626,27.8,29.5,1025.34,0.07,-380,936,367,1003,11,29,
-3606,27.8,29.5,1025.34,0.07,-638,866,385,1001,5,32,
-3586,27.8,29.5,1025.34,0.04,-608,665,266,1002,4,36,
-3567,27.8,29.5,1025.34,0.08,-126,275,236,1002,8,32,
-3546,27.8,29.5,1025.34,0.06,415,126,328,1003,11,23,
-3527,27.8,29.5,1025.34,0.07,621,214,476,1005,15,15,
-3507,27.8,29.5,1025.34,0.05,205,525,603,1006,14,6,
-3487,27.8,29.5,1025.34,0.04,-218,1089,739,1006,13,9,
-3467,27.8,29.6,1025.34,0.07,-411,1566,901,1004,14,17,
-3447,27.8,29.5,1025.33,0.11,-503,1793,1023,1002,6,24,
-3427,27.8,29.5,1025.33,0.12,-380,1785,980,1001,-1,30,
-3407,27.8,29.5,1025.34,0.08,-266,1592,726,1000,-5,32,
-3387,27.8,29.5,1025.33,0.10,100,1413,446,1002,-2,27,
-3367,27.8,29.5,1025.34,0.10,612,1356,258,1003,2,23,
-3347,27.8,29.5,1025.34,0.08,691,1465,157,1004,6,19,
-3328,27.8,29.5,1025.33,0.12,507,1728,83,1004,5,19,
-3306,27.8,29.5,1025.33,0.14,0,1929,100,1001,5,36,
-3286,27.8,29.5,1025.33,0.10,-166,1671,21,1000,6,45,
-3267,27.8,29.5,1025.33,0.11,-420,1124,-30,1000,7,45,
-3248,27.8,29.5,1025.34,0.08,-765,621,-126,1001,3,38,
-3228,27.8,29.4,1025.34,0.09,-665,341,-227,1002,6,30,
-3208,27.8,29.5,1025.34,0.08,-363,205,-183,1004,12,21,
-3188,27.8,29.6,1025.34,0.05,-83,450,-74,1005,15,15,
-3168,27.8,29.5,1025.34,0.08,8,774,135,1004,17,18,
-3148,27.8,29.6,1025.34,0.09,-161,1001,371,1003,14,24,
-3128,27.8,29.5,1025.34,0.06,-17,1054,542,1003,10,30,
-3108,27.8,29.4,1025.34,0.03,196,879,595,1001,11,33,
-3088,27.8,29.5,1025.35,-0.02,179,647,700,1002,12,29,
-3068,27.8,29.5,1025.35,-0.02,-83,573,730,1004,12,22,
-3048,27.8,29.4,1025.34,0.04,-284,695,822,1005,12,14,
-3029,27.8,29.5,1025.34,0.05,-310,1019,980,1006,8,9,
-3009,27.8,29.5,1025.34,0.09,48,1526,1067,1005,6,11,
-2989,27.8,29.6,1025.34,0.08,236,1903,1015,1004,3,18,
-2969,27.8,29.6,1025.34,0.06,249,2117,918,1003,1,28,
-2949,27.8,29.5,1025.34,0.05,126,2021,713,1001,0,37,
-2929,27.8,29.5,1025.35,0.00,144,1662,503,1000,-2,37,
-2909,27.8,29.4,1025.34,0.05,227,1343,240,1001,-1,34,
-2889,27.8,29.5,1025.34,0.08,236,1115,43,1002,4,29,
-2869,27.8,29.5,1025.34,0.08,78,1115,-8,1004,8,23,
-2849,27.8,29.5,1025.34,0.04,-433,1408,83,1003,8,28,
-2828,27.8,29.5,1025.34,0.03,-621,1369,65,1003,3,34,
-2809,27.8,29.5,1025.34,0.04,-551,1172,-78,1001,2,39,
-2789,27.8,29.4,1025.34,0.02,-433,748,-183,1000,5,39,
-2770,27.8,29.5,1025.34,0.04,-341,424,-245,1001,7,33,
-2750,27.8,29.5,1025.35,-0.01,-153,231,-196,1003,15,26,
-2730,27.8,29.5,1025.34,0.04,-35,223,30,1004,17,19,
-2710,27.8,29.5,1025.34,0.06,-83,490,297,1006,17,15,
-2690,27.8,29.5,1025.34,0.03,-271,848,503,1005,15,16,
-2670,27.8,29.5,1025.34,0.05,-371,1093,704,1003,12,21,
-2650,27.8,29.6,1025.35,0.01,-249,1246,756,1002,8,27,
-2630,27.8,29.5,1025.34,0.04,74,1207,835,1002,8,29,
-2610,27.8,29.6,1025.34,0.05,175,1054,853,1003,7,26,
-2590,27.8,29.6,1025.34,0.05,205,1036,791,1004,7,22,
-2571,27.8,29.5,1025.34,0.06,236,1159,761,1003,7,17,
-2550,27.8,29.5,1025.34,0.05,266,1443,756,1004,5,15,
-2531,27.8,29.6,1025.34,0.06,371,1745,756,1004,6,20,
-2511,27.8,29.6,1025.34,0.04,301,1925,743,1003,4,26,
-2491,27.8,29.5,1025.34,0.08,91,1955,621,1001,0,32,
-2471,27.8,29.5,1025.33,0.10,35,1723,411,1001,-1,37,
-2451,27.8,29.6,1025.33,0.13,21,1408,161,1000,0,38,
-2431,27.8,29.5,1025.33,0.16,-13,1120,-52,1001,1,34,
-2411,27.8,29.5,1025.33,0.15,-91,966,-161,1003,6,29,
-2391,27.8,29.6,1025.33,0.14,-210,945,-179,1004,8,25,
-2370,27.8,29.5,1025.33,0.13,-231,1111,-131,1003,9,28,
-2350,27.8,29.7,1025.33,0.16,-240,1041,-70,1002,9,32,
-2331,27.8,29.5,1025.32,0.19,-192,888,-70,1002,11,35,
-2312,27.8,29.5,1025.33,0.18,-126,612,61,1001,13,33,
-2292,27.8,29.5,1025.33,0.11,-183,420,161,1003,12,28,
-2272,27.8,29.5,1025.34,0.10,-236,376,297,1003,13,22,
-2252,27.8,29.6,1025.34,0.07,-297,560,450,1005,12,16,
-2232,27.8,29.5,1025.34,0.04,-188,844,551,1004,11,15,
-2212,27.8,29.5,1025.35,0.01,83,1141,717,1004,13,18,
-2192,27.8,29.5,1025.35,-0.01,179,1373,870,1003,12,23,
-2172,27.8,29.6,1025.34,0.02,161,1439,980,1003,10,27,
-2152,27.8,29.5,1025.33,0.10,-21,1391,1015,1002,6,29,
-2132,27.8,29.6,1025.33,0.12,-135,1303,940,1003,2,26,
-2112,27.8,29.5,1025.34,0.10,43,1273,813,1003,0,24,
-2092,27.8,29.5,1025.33,0.11,310,1365,669,1004,2,22,
-2073,27.8,29.5,1025.34,0.08,490,1500,564,1003,4,23,
-2052,27.8,29.5,1025.34,0.06,520,1605,490,1003,5,24,
-2033,27.8,29.5,1025.34,0.07,376,1653,437,1002,4,29,
-2013,27.8,29.5,1025.34,0.09,118,1618,336,1001,3,34,
-1993,27.8,29.6,1025.33,0.10,-258,1408,183,1001,1,37,
-1973,27.8,29.5,1025.33,0.12,-503,1085,0,1000,1,38,
-1953,27.8,29.6,1025.33,0.15,-428,813,-148,1001,4,33,
-1933,27.8,29.6,1025.33,0.12,-310,630,-205,1003,7,29,
-1912,27.8,29.5,1025.33,0.12,-262,743,-122,1004,11,21,
-1892,27.8,29.5,1025.33,0.13,-350,927,-21,1004,13,24,
-1872,27.8,29.6,1025.33,0.11,-402,1015,96,1003,10,28,
-1853,27.8,29.5,1025.34,0.07,-258,953,179,1002,10,31,
-1834,27.8,29.5,1025.34,0.08,-17,813,284,1002,11,30,
-1813,27.8,29.6,1025.34,0.08,87,700,402,1003,12,27,
-1793,27.8,29.5,1025.33,0.13,13,678,481,1003,14,21,
-1774,27.8,29.6,1025.33,0.15,-131,853,643,1005,15,16,
-1754,27.8,29.6,1025.34,0.09,-148,1168,835,1005,12,15,
-1734,27.8,29.5,1025.33,0.10,0,1465,975,1004,7,18,
-1714,27.8,29.5,1025.33,0.10,122,1671,980,1003,5,25,
-1694,27.8,29.6,1025.34,0.07,262,1688,953,1003,4,30,
-1674,27.8,29.5,1025.34,0.09,323,1583,831,1001,4,33,
-1654,27.8,29.6,1025.34,0.09,201,1421,752,1001,3,33,
-1634,27.8,29.5,1025.34,0.09,13,1216,630,1003,2,30,
-1614,27.8,29.5,1025.34,0.07,-131,1150,511,1003,1,27,
-1594,27.8,29.6,1025.34,0.01,-192,1198,376,1003,0,24,
-1574,27.8,29.6,1025.34,0.07,-109,1321,231,1003,2,24,
-1554,27.8,29.6,1025.34,0.09,-8,1404,126,1001,4,29,
-1535,27.8,29.6,1025.34,0.08,-74,1347,48,1002,4,34,
-1515,27.8,29.5,1025.34,0.06,-262,1176,-78,1001,4,36,
-1495,27.8,29.5,1025.34,0.07,-411,888,-179,1001,5,36,
-1475,27.8,29.5,1025.33,0.11,-411,616,-258,1002,7,31,
-1455,27.8,29.6,1025.34,0.07,-288,533,-231,1003,11,25,
-1434,27.8,29.6,1025.34,0.03,-266,783,52,1005,17,18,
-1414,27.8,29.5,1025.34,0.04,-420,1019,249,1004,15,20,
-1395,27.8,29.6,1025.34,0.07,-468,1194,398,1004,11,23,
-1375,27.8,29.6,1025.34,0.07,-332,1238,494,1003,8,27,
-1355,27.8,29.6,1025.33,0.13,-43,1203,529,1002,7,29,
-1336,27.8,29.5,1025.34,0.05,227,1071,546,1003,8,27,
-1315,27.8,29.6,1025.34,0.05,393,1041,603,1004,12,23,
-1296,27.9,29.6,1025.34,0.09,402,1120,735,1005,13,20,
-1276,27.9,29.6,1025.34,0.07,280,1321,870,1004,13,19,
-1256,27.9,29.5,1025.34,0.06,78,1522,988,1004,9,22,
-1236,27.9,29.5,1025.34,0.09,-140,1666,1019,1003,5,27,
-1216,27.9,29.5,1025.34,0.08,-179,1623,958,1001,0,32,
-1196,27.9,29.6,1025.34,0.08,-78,1478,774,1001,-3,36,
-1176,27.9,29.5,1025.34,0.07,70,1176,498,1000,-2,34,
-1156,27.9,29.5,1025.34,0.10,166,984,236,1002,0,31,
-1137,27.9,29.6,1025.33,0.11,135,888,100,1002,5,27,
-1116,27.9,29.6,1025.34,0.09,0,918,39,1003,8,24,
-1097,27.9,29.5,1025.34,0.05,-218,1050,39,1003,9,25,
-1077,27.9,29.6,1025.34,0.06,-498,1124,78,1002,7,29,
-1057,27.9,29.5,1025.34,0.02,-700,1080,35,1002,4,32,
-1037,27.9,29.6,1025.34,0.02,-713,931,-65,1001,1,33,
-1017,27.9,29.7,1025.34,0.03,-525,721,-175,1003,4,30,
-997,27.9,29.6,1025.34,0.02,-78,630,-223,1003,8,25,
-976,27.9,29.6,1025.34,0.02,240,822,35,1005,17,18,
-957,27.9,29.6,1025.35,0.01,26,1098,280,1004,18,19,
-936,27.9,29.5,1025.34,0.02,-236,1325,511,1004,16,23,
-917,27.9,29.6,1025.34,0.02,-341,1413,691,1002,11,26,
-897,27.9,29.5,1025.35,-0.00,-196,1369,805,1002,6,30,
-878,27.9,29.5,1025.35,-0.03,21,1233,800,1002,5,30,
-858,27.9,29.5,1025.35,-0.04,214,1137,721,1003,5,26,
-838,27.9,29.6,1025.35,-0.03,345,1163,713,1003,8,23,
-818,27.9,29.6,1025.35,-0.03,406,1233,739,1004,9,21,
-798,27.9,29.6,1025.35,-0.03,354,1435,818,1004,9,23,
-778,27.9,29.6,1025.35,-0.03,113,1540,826,1002,5,28,
-758,27.9,29.5,1025.35,0.01,-48,1491,752,1002,1,33,
-738,27.9,29.5,1025.34,0.03,-91,1330,608,1002,0,35,
-718,27.9,29.5,1025.35,0.00,-74,1054,406,1001,0,36,
-698,27.9,29.5,1025.35,0.00,-192,813,192,1001,1,31,
-679,27.9,29.6,1025.34,0.03,-280,717,39,1003,3,28,
-658,27.9,29.5,1025.34,0.03,-306,743,-56,1004,6,23,
-639,27.9,29.6,1025.34,0.03,-345,879,-74,1004,7,22,
-619,27.9,29.6,1025.35,0.00,-345,1006,-56,1003,8,25,
-599,27.9,29.6,1025.34,0.02,-389,1067,-39,1002,9,28,
-579,27.9,29.5,1025.35,0.00,-385,1054,-30,1002,9,30,
-559,27.9,29.7,1025.34,0.04,-367,923,8,1002,9,31,
-539,27.9,29.7,1025.34,0.05,-363,783,74,1003,11,27,
-519,27.9,29.6,1025.34,0.04,-323,761,161,1004,11,23,
-499,27.9,29.6,1025.34,0.07,-113,1058,420,1005,13,18,
-478,27.9,29.5,1025.34,0.06,39,1295,573,1004,11,22,
-458,27.9,29.6,1025.34,0.07,122,1430,656,1003,10,25,
-440,27.9,29.5,1025.34,0.08,192,1452,752,1002,13,29,
-420,27.9,29.5,1025.34,0.02,91,1400,875,1003,13,30,
-400,27.9,29.6,1025.34,0.02,-183,1286,988,1002,9,32,
-380,27.9,29.6,1025.34,0.05,-472,1137,993,1002,4,30,
-360,27.9,29.6,1025.34,0.04,-638,1067,853,1003,-1,27,
-340,27.9,29.5,1025.34,0.05,-520,1036,647,1003,-2,25,
-320,27.9,29.6,1025.34,0.01,-210,1115,459,1003,0,23,
-300,27.9,29.6,1025.34,0.05,183,1238,385,1002,3,24,
-280,27.9,29.7,1025.34,0.07,275,1290,341,1002,5,28,
-260,27.9,29.6,1025.34,0.07,-87,1260,280,1002,6,32,
-241,27.9,29.6,1025.34,0.03,-586,1133,188,1001,4,35,
-221,27.9,29.6,1025.34,0.02,-726,905,96,1002,1,33,
-201,27.9,29.6,1025.34,0.02,-595,700,-56,1002,1,29,
-181,27.9,29.6,1025.34,0.03,-1089,638,-271,976,10,35,
-161,27.9,29.6,1025.34,0.02,-16283,223,-3815,964,-2,19,
-141,27.9,29.6,1025.34,0.01,-10486,468,-1588,968,22,28,
-121,27.9,29.6,1025.35,-0.02,-5766,1076,-656,1011,35,66,
-101,27.9,29.6,1025.35,-0.04,-6151,-713,-713,1005,22,-12,
-81,27.9,29.6,1025.35,-0.05,-3075,678,586,1022,31,-16,
-61,27.9,29.6,1025.35,-0.02,-6111,2485,971,990,14,51,
-42,27.9,29.6,1025.35,-0.00,-9751,1036,17,1009,34,14,
-21,27.9,29.6,1025.35,0.00,-27615,2375,-1176,1193,55,83,
68,27.9,29.5,1025.34,0.06,-27155,-13234,-577,1998,94,443,
78,27.9,29.6,1025.34,0.04,-32353,-12263,1885,1998,82,726,
98,27.9,29.7,1025.33,0.11,-57334,-24570,-140,1998,87,262,
118,27.9,29.6,1025.33,0.14,-86231,-10145,-7188,1998,213,115,
190,27.9,29.6,1025.29,0.51,140262,-23594,54884,1998,106,1036,
208,27.9,29.6,1025.27,0.63,143342,-43859,52626,1998,172,894,
228,27.9,29.6,1025.25,0.85,143342,-53186,55400,1998,147,815,
247,27.9,29.6,1025.21,1.13,143342,-59325,55461,1998,178,780,
313,27.9,29.7,1025.11,2.06,143342,-65323,50671,1998,247,754,
323,27.9,29.7,1025.06,2.45,143342,-62733,47337,1998,309,743,
342,27.9,29.6,1025.01,2.85,143342,-60029,45810,1998,357,752,
361,27.9,29.7,1024.96,3.34,143342,-57461,44563,1998,474,732,
380,27.9,29.7,1024.90,3.87,143342,-53655,40350,1998,521,717,
400,27.9,29.7,1024.83,4.43,143342,-50505,31976,1998,576,679,
419,27.9,29.5,1024.76,5.07,143342,-48667,22728,1998,595,595,
438,27.9,29.8,1024.66,5.88,143342,-49949,13978,1998,680,577,
457,27.9,29.7,1024.56,6.70,143342,-54066,6448,1998,739,496,
478,27.9,29.6,1024.49,7.35,143342,-60256,-691,1998,722,457,
497,27.9,29.7,1024.41,7.99,143342,-71036,-8981,1998,696,384,
516,27.9,29.6,1024.34,8.64,143342,-84726,-10858,1998,662,323,
536,27.9,29.6,1024.26,9.34,143342,-101530,-5158,1998,718,327,
556,27.9,29.9,1024.19,9.91,143342,-118816,2891,1998,692,323,
576,27.9,29.7,1024.12,10.53,143342,-134728,13094,1998,744,359,
596,27.9,29.7,1024.05,11.16,143342,-142607,26792,1998,817,392,
617,27.9,29.8,1023.98,11.73,143342,-143338,36964,1998,856,408,
670,27.9,29.7,1023.82,13.11,143342,-133511,58515,1998,1195,313,
686,27.9,29.8,1023.72,13.95,143342,-131215,50133,1998,1242,248,
705,27.9,29.6,1023.62,14.78,143342,-136071,40241,1998,1254,209,
724,27.9,29.8,1023.54,15.50,143342,-142450,32379,1998,1251,197,
743,27.9,29.7,1023.45,16.27,143342,-143342,32738,1998,1308,166,
763,27.9,29.7,1023.37,16.99,143342,-143342,34046,1998,1272,149,
782,27.9,29.7,1023.28,17.71,143342,-143342,39431,1998,1267,130,
801,27.9,29.7,1023.19,18.47,143342,-143342,51747,1998,1332,111,
820,27.9,29.7,1023.10,19.27,143342,-143342,67611,1998,1474,136,
839,27.9,29.7,1022.99,20.24,143342,-143342,75858,1998,1539,50,
858,27.9,29.8,1022.87,21.26,143342,-143342,77306,1998,1694,136,
877,27.9,29.7,1022.75,22.29,143342,-143342,66893,1998,1686,138,
896,27.9,29.8,1022.63,23.36,143342,-143342,53523,1998,1674,134,
915,27.9,29.8,1022.48,24.64,143342,-143342,41720,1998,1680,138,
936,27.9,29.8,1022.36,25.69,143342,-143342,34072,1998,1654,84,
955,27.9,29.8,1022.24,26.70,143342,-143342,33993,1998,1692,17,
974,27.9,29.7,1022.10,27.89,143342,-143342,38850,1998,1836,92,
994,27.9,29.8,1021.96,29.06,143342,-143342,37563,1998,1862,57,
1014,27.9,29.8,1021.84,30.09,143342,-143342,35673,1998,1874,91,
1034,27.9,29.7,1021.73,31.06,143342,-143342,32808,1998,1841,-3,
1054,27.9,29.8,1021.62,32.01,143342,-143342,36833,1998,1858,26,
1074,27.9,29.8,1021.50,33.03,143342,-143342,41501,1998,1923,23,
1094,27.9,29.8,1021.38,34.06,143342,-143342,42949,1998,1957,69,
1113,27.9,29.7,1021.28,34.92,143342,-143342,39309,1998,1922,-10,
1134,27.9,29.7,1021.15,36.09,143342,-143342,33901,1998,1978,77,
1153,27.9,29.7,1021.03,37.10,143342,-143342,25939,1998,1961,84,
1173,27.9,29.7,1020.92,38.05,143342,-143342,20912,1998,1935,23,
1193,27.9,29.7,1020.77,39.38,143342,-143342,25777,1998,1974,60,
1213,27.9,29.7,1020.58,41.02,143342,-143342,31084,1998,1997,105,
1233,27.9,29.8,1020.39,42.61,143342,-143342,22592,1998,1998,188,
1253,27.9,29.8,1020.22,44.12,143342,-143342,328,1998,1998,198,
1273,27.9,29.9,1020.08,45.34,143342,-143342,-20103,1998,1998,198,
1293,27.9,29.8,1019.94,46.53,143342,-143342,-31915,1998,1998,173,
1313,28.0,29.8,1019.81,47.63,143342,-143342,-33670,1998,1998,220,
1332,28.0,29.8,1019.68,48.74,143342,-143342,-30751,1998,1998,187,
1353,28.0,29.8,1019.56,49.76,143342,-143342,-25567,1998,1998,199,
1372,28.0,29.7,1019.45,50.74,143342,-143342,-25226,1998,1998,208,
1393,28.0,29.8,1019.32,51.91,143342,-143342,-32016,1998,1998,175,
1414,28.0,29.7,1019.22,52.73,143342,-143342,-40915,1998,1998,124,
1433,28.0,29.6,1019.13,53.56,143342,-143342,-39873,1998,1998,207,
1452,28.0,29.7,1019.04,54.31,143342,-143342,-38158,1998,1998,222,
1472,28.0,29.8,1018.95,55.07,143342,-143342,-45237,1998,1998,313,
1492,28.0,29.7,1018.84,56.04,143342,-143342,-54088,1998,1998,316,
1512,28.0,29.8,1018.74,56.93,143342,-143342,-61621,1998,1998,292,
1532,28.0,29.9,1018.63,57.86,143342,-143342,-68722,1998,1998,439,
1552,28.0,29.8,1018.58,58.30,143342,-143342,-77686,1994,1998,407,
1572,28.0,29.9,1018.55,58.51,143342,-143342,-81558,1998,1998,623,
1592,28.0,29.8,1018.51,58.91,143342,-143342,-85570,1998,1998,777,
1611,28.0,29.8,1018.44,59.52,143342,-143342,-98266,1998,1998,914,
1631,28.0,29.7,1018.38,60.04,143342,-143342,-118221,1997,1998,947,
1651,28.0,29.8,1018.36,60.17,143342,-143342,-130926,1998,1998,937,
1671,28.0,29.8,1018.36,60.19,143342,-142848,-135056,1998,1996,928,
1691,28.0,29.7,1018.37,60.13,143342,-137392,-129036,1998,1984,786,
1711,28.0,29.7,1018.35,60.30,143342,-130742,-116830,1998,1970,864,
1731,28.0,29.8,1018.33,60.46,143342,-124241,-100008,1998,1830,874,
1751,28.0,29.8,1018.29,60.77,143342,-110079,-77910,1998,1883,789,
1771,28.0,29.8,1018.26,61.04,143342,-101355,-63275,1998,1941,641,
1791,28.0,29.7,1018.21,61.48,143342,-103687,-52386,1997,1942,502,
1811,28.0,29.7,1018.14,62.13,143342,-115478,-37747,1997,1964,304,
1830,28.0,29.8,1018.05,62.90,143342,-134548,-24815,1993,1971,108,
1851,28.0,29.7,1017.91,64.09,143342,-143154,2751,1998,1989,-15,
1871,28.0,29.8,1017.72,65.70,143342,-143342,38478,1998,1998,-326,
1891,28.0,29.7,1017.54,67.24,143342,-143342,40324,1998,1998,-394,
1945,28.0,29.8,1017.18,70.38,143342,-143342,42949,1998,1998,-391,
1950,28.0,29.8,1016.97,72.20,143342,-143342,44721,1998,1998,-404,
1970,28.0,29.8,1016.76,74.08,143342,-143342,42179,1912,1998,-576,
1990,28.0,29.8,1016.53,76.07,143342,-143342,47560,842,1998,-746,
2010,28.0,29.7,1016.27,78.31,143342,-143342,49306,-368,1998,-930,
2030,28.0,29.7,1016.02,80.44,143342,-143342,52381,-921,1998,-993,
2050,28.0,29.8,1015.81,82.31,143342,-143342,50509,-1249,1998,-837,
2070,28.0,29.8,1015.58,84.24,143342,-143342,37878,-1361,1998,-709,
2089,28.0,29.7,1015.39,85.95,143342,-143342,19534,-1362,1998,-517,
2109,28.0,29.7,1015.18,87.71,143342,-143342,-24053,-1452,1998,-495,
2129,28.0,29.8,1015.05,88.88,143342,-143342,-47341,-1414,1998,-287,
2149,28.0,29.7,1014.89,90.25,143342,-143342,-54578,-1356,1998,-61,
2169,28.0,29.8,1014.73,91.66,143342,-143342,-65441,-1261,1998,-73,
2189,28.0,29.7,1014.60,92.77,143342,-143342,-82617,-1286,1998,-66,
2209,28.0,29.7,1014.51,93.56,143342,-143342,-102720,-1360,1998,-165,
2229,28.0,29.8,1014.44,94.22,143342,-143342,-107633,-1329,1998,-20,
2249,28.0,29.7,1014.30,95.38,143342,-143342,-99023,-1263,1998,76,
2269,28.0,29.9,1014.18,96.48,143342,-143342,-94237,-1214,1998,16,
2289,28.0,29.7,1014.06,97.45,143342,-143342,-98507,-1186,1998,47,
2308,28.0,29.8,1013.97,98.25,143342,-143342,-105192,-1205,1998,-3,
2329,28.0,29.7,1013.92,98.68,143342,-143342,-111260,-1177,1998,110,
2350,28.0,29.8,1013.87,99.16,143342,-143342,-111422,-1115,1998,219,
2369,28.0,29.8,1013.81,99.68,143342,-143342,-111925,-1049,1998,327,
2388,28.0,29.8,1013.73,100.37,143342,-143342,-116996,-1030,1998,451,
2408,28.0,29.7,1013.68,100.76,143342,-143342,-132356,-1034,1998,433,
2428,28.0,29.8,1013.70,100.61,143342,-143342,-142183,-1030,1998,542,
2448,28.0,29.7,1013.74,100.31,143342,-143342,-143320,-1004,1996,712,
2468,28.0,29.7,1013.81,99.68,143342,-143276,-143342,-936,1892,916,
2488,28.0,29.8,1013.89,98.97,143342,-128362,-143342,-843,1545,1056,
2507,28.0,29.8,1014.00,98.05,143342,-69396,-143342,-776,944,1142,
2527,28.0,29.8,1014.06,97.53,136705,4095,-143342,-673,505,1138,
2547,28.0,29.7,1014.12,96.99,32637,81620,-143342,-592,-238,840,
2567,28.0,29.8,1014.14,96.78,-103110,135515,-143224,-524,-626,610,
2587,28.0,29.8,1014.12,96.97,-143342,143342,-125488,-518,-499,204,
2607,28.0,29.7,1014.17,96.56,-143342,143342,-67738,-571,-338,-394,
2627,28.0,29.8,1014.22,96.07,-143342,115727,10670,-698,-298,-678,
2647,28.0,29.7,1014.23,96.01,-143342,-2244,61875,-763,49,-591,
2667,28.0,29.7,1014.20,96.28,-143342,-113085,46961,-778,338,-455,
2686,28.0,29.6,1014.16,96.60,-143342,-143145,-14713,-722,355,-340,
2707,28.0,29.8,1014.12,97.00,-143342,-143342,-78903,-592,271,-159,
2726,28.0,29.6,1014.07,97.38,-143342,-142467,-116961,-469,82,90,
2746,28.0,29.8,1014.02,97.85,-143342,-117928,-113290,-361,-107,335,
2766,28.0,29.7,1013.97,98.31,-143342,-63568,-89136,-279,-305,507,
2786,28.0,29.7,1013.93,98.65,-143342,-7708,-64995,-251,-376,553,
2807,28.0,29.8,1013.86,99.22,-143342,70988,-19635,-335,-163,266,
2828,28.0,29.7,1013.81,99.67,-143342,73438,-5709,-414,33,-62,
2847,28.0,29.8,1013.78,99.88,-143342,43155,6208,-469,134,-391,
2866,28.0,29.7,1013.76,100.11,-143342,-10981,10876,-499,211,-509,
2886,28.0,29.8,1013.71,100.54,-143342,-67751,-161,-505,271,-493,
2905,28.0,29.7,1013.66,100.97,-143342,-107725,-29413,-462,228,-386,
2925,28.0,29.8,1013.62,101.35,-143342,-121699,-63306,-392,134,-223,
2945,28.0,29.8,1013.57,101.74,-143342,-110363,-83488,-320,-34,-61,
2965,28.0,29.7,1013.53,102.11,-143342,-84035,-85500,-258,-100,45,
2985,28.0,29.8,1013.48,102.56,-143342,-54368,-79458,-246,-135,60,
3005,28.0,29.7,1013.41,103.11,-143342,-32908,-76938,-239,-120,-3,
3025,28.0,29.7,1013.35,103.70,-143342,-20689,-76811,-237,-1,-242,
3045,28.0,29.7,1013.31,103.97,-143342,-24718,-77126,-281,142,-540,
3065,28.0,29.8,1013.29,104.17,-143342,-52364,-74217,-345,88,-702,
3085,28.0,29.8,1013.26,104.47,-143342,-93511,-75810,-386,114,-644,
3105,28.0,29.8,1013.22,104.81,-143342,-126459,-93681,-386,118,-547,
3124,28.0,29.7,1013.18,105.18,-143342,-140385,-119997,-361,118,-440,
3144,28.0,29.7,1013.12,105.68,-143342,-136635,-140271,-312,85,-365,
3198,28.1,29.8,1012.96,107.05,-143342,-73154,-143342,-186,-25,-513,
3208,28.1,29.8,1012.91,107.53,-143342,-67943,-143342,-208,-85,-566,
3227,28.1,29.8,1012.86,107.95,-143342,-79690,-141216,-250,-163,-570,
3246,28.1,29.8,1012.80,108.42,-143342,-102624,-132111,-299,-173,-498,
3266,28.1,29.8,1012.77,108.75,-143342,-127448,-126336,-337,-177,-443,
3284,28.1,29.8,1012.71,109.20,-143342,-141811,-126175,-356,-135,-355,
3305,28.1,29.8,1012.67,109.63,-143342,-143342,-131040,-355,-135,-289,
3325,28.1,29.8,1012.61,110.09,-143342,-143342,-138280,-334,-142,-247,
3343,28.1,29.8,1012.55,110.61,-143342,-143329,-142331,-304,-146,-231,
3363,28.1,29.7,1012.48,111.23,-143342,-140651,-143119,-264,-208,-270,
3383,28.1,29.8,1012.41,111.87,-143342,-130243,-143185,-245,-265,-298,
3403,28.1,29.7,1012.35,112.42,-143342,-125063,-140765,-239,-314,-322,
3423,28.1,29.8,1012.30,112.82,-143342,-126573,-131761,-251,-317,-309,
3443,28.1,29.7,1012.26,113.17,-143342,-132553,-123471,-273,-299,-319,
3463,28.1,29.7,1012.22,113.52,-143342,-140953,-119568,-292,-272,-305,
3483,28.1,29.9,1012.18,113.88,-143342,-143311,-119896,-309,-277,-286,
3503,28.1,29.7,1012.13,114.28,-143342,-143342,-122071,-311,-263,-273,
3523,28.1,29.8,1012.08,114.78,-143342,-143342,-124845,-307,-235,-240,
3542,28.1,29.8,1012.01,115.31,-143342,-143342,-130475,-296,-211,-223,
3563,28.1,29.7,1011.95,115.89,-143342,-143342,-134833,-266,-225,-225,
3583,28.1,29.7,1011.88,116.52,-143342,-143342,-137856,-251,-259,-221,
3602,28.1,29.8,1011.81,117.10,-143342,-143097,-138963,-236,-273,-215,
3622,28.1,29.9,1011.74,117.67,-143342,-140192,-136583,-215,-310,-215,
3642,28.1,29.7,1011.68,118.22,-143342,-135034,-131394,-208,-335,-196,
3662,28.1,29.8,1011.63,118.68,-143342,-133021,-126035,-205,-305,-188,
3682,28.1,29.8,1011.59,119.04,-143342,-134273,-121655,-210,-299,-189,
3702,28.1,29.8,1011.55,119.33,-143342,-136491,-119297,-208,-280,-195,
3722,28.1,29.8,1011.51,119.69,-143342,-139405,-120881,-217,-267,-205,
3742,28.1,29.7,1011.46,120.14,-143342,-142358,-123856,-225,-254,-211,
3763,28.1,29.7,1011.41,120.58,-143342,-143342,-135056,-245,-231,-227,
3783,28.1,29.8,1011.37,120.90,-143342,-143342,-141356,-240,-208,-236,
3802,28.1,29.8,1011.35,121.13,-143342,-143342,-143298,-246,-198,-238,
3821,28.1,29.7,1011.34,121.22,-143342,-143342,-143342,-240,-179,-259,
3841,28.1,29.8,1011.32,121.34,-143342,-143342,-143342,-242,-167,-264,
3861,28.1,29.8,1011.32,121.37,-143342,-143084,-143342,-237,-139,-288,
3881,28.1,29.8,1011.32,121.39,-143342,-140997,-143342,-228,-111,-321,
3901,28.1,29.7,1011.33,121.29,-143342,-135423,-143342,-223,-80,-341,
3921,28.1,29.8,1011.34,121.16,-143342,-127999,-143342,-213,-22,-384,
3941,28.1,29.9,1011.36,121.00,-143342,-117976,-143342,-197,45,-454,
3961,28.1,29.8,1011.37,120.94,-143342,-104505,-143342,-183,115,-515,
3981,28.1,29.7,1011.36,121.05,-143342,-87333,-143342,-164,143,-571,
4001,28.1,29.8,1011.34,121.17,-143342,-67777,-143342,-150,179,-576,
4021,28.1,29.8,1011.31,121.48,-143342,-48418,-143342,-133,146,-568,
4041,28.1,29.7,1011.26,121.93,-143342,-32493,-143342,-125,130,-517,
4060,28.1,29.7,1011.21,122.32,-143342,-22653,-143342,-128,118,-444,
4081,28.1,29.8,1011.16,122.73,-143342,-19184,-143342,-133,72,-382,
4100,28.1,29.7,1011.13,123.06,-143342,-20693,-143342,-139,70,-289,
4120,28.1,29.8,1011.08,123.47,-143342,-25156,-143342,-140,51,-232,
4140,28.1,29.9,1011.04,123.78,-143342,-30108,-143342,-140,75,-180,
4160,28.1,29.8,1011.01,124.04,-143342,-34615,-143342,-141,76,-160,
4180,28.1,29.8,1010.99,124.26,-143342,-38985,-143342,-140,57,-139,
4200,28.1,29.8,1010.97,124.40,-143342,-43115,-143342,-133,44,-122,
4221,28.1,29.9,1010.95,124.59,-143342,-47468,-143342,-121,16,-90,
4240,28.1,29.9,1010.92,124.90,-143342,-47241,-143342,-116,-4,-80,
4261,28.1,29.9,1010.88,125.24,-143342,-45587,-143342,-105,-21,-81,
4280,28.1,29.8,1010.84,125.59,-143342,-42420,-143342,-89,-37,-87,
4299,28.1,29.8,1010.80,125.93,-143342,-39182,-143342,-80,-39,-83,
4320,28.1,29.9,1010.76,126.30,-143342,-37038,-143342,-67,-55,-93,
4339,28.1,29.8,1010.73,126.54,-143342,-36106,-143276,-66,-50,-84,
4393,28.1,29.9,1010.68,126.95,-143342,-37471,-141015,-49,-31,-119,
4412,28.1,29.9,1010.67,127.04,-143342,-37183,-140105,-43,-16,-134,
4431,28.1,29.8,1010.67,127.06,-143342,-37235,-140660,-41,0,-148,
4450,28.1,29.9,1010.66,127.12,-143342,-37686,-141890,-37,21,-159,
4469,28.1,29.8,1010.66,127.18,-143342,-36938,-142966,-31,27,-190,
4488,28.1,29.8,1010.65,127.23,-143342,-34921,-143307,-27,48,-209,
4507,28.1,29.7,1010.65,127.25,-143342,-32650,-143342,-23,53,-223,
4527,28.1,29.8,1010.64,127.33,-143342,-30187,-143342,-22,71,-233,
4545,28.1,29.9,1010.62,127.48,-143342,-26950,-143342,-18,115,-229,
4565,28.1,29.8,1010.61,127.60,-143342,-22898,-143342,-14,155,-213,
4584,28.1,29.8,1010.58,127.86,-143342,-18506,-142690,-8,131,-213,
4603,28.1,29.8,1010.55,128.10,-143342,-14726,-138674,-15,144,-185,
4622,28.1,29.8,1010.51,128.42,-143342,-11659,-133166,-17,150,-156,
4641,28.1,29.8,1010.47,128.77,-143342,-9397,-127946,-17,143,-129,
4660,28.1,29.7,1010.44,129.04,-143342,-7870,-123340,-20,129,-101,
4679,28.1,29.7,1010.41,129.33,-143342,-6304,-120872,-20,124,-77,
4699,28.1,29.7,1010.37,129.68,-143342,-4322,-119533,-21,121,-54,
4719,28.1,29.7,1010.33,130.03,-143342,-1916,-118571,-23,110,-35,
4738,28.1,29.8,1010.30,130.30,-143342,914,-117897,-21,102,-19,
4758,28.1,29.8,1010.27,130.53,-143342,4396,-117350,-20,85,-13,
4778,28.1,29.7,1010.24,130.77,-143342,8684,-116143,-22,76,-2,
4797,28.1,29.7,1010.21,131.06,-143342,13492,-114948,-23,74,9,
4817,28.1,29.8,1010.19,131.28,-143342,18296,-114135,-24,67,16,
4838,28.1,29.7,1010.16,131.48,-143342,23139,-113596,-22,68,23,
4857,28.1,29.8,1010.14,131.68,-143342,28354,-113054,-21,64,23,
4877,28.1,29.6,1010.12,131.87,-143342,33735,-112266,-16,57,22,
4897,28.1,29.8,1010.10,132.05,-143342,39051,-110840,-15,49,19,
4917,28.1,29.8,1010.08,132.18,-143342,44454,-108539,-11,44,19,
4937,28.1,29.8,1010.07,132.30,-143342,49673,-105476,-9,37,16,
4957,28.1,29.8,1010.06,132.38,-143342,54565,-101517,-7,33,16,
4977,28.1,29.7,1010.05,132.46,-143342,59163,-97151,-7,29,15,
4997,28.1,29.8,1010.05,132.51,-143342,63306,-92303,-7,24,15,
5017,28.2,29.8,1010.04,132.56,-143342,67230,-86870,-7,20,12,
5036,28.2,29.8,1010.04,132.60,-143342,71019,-80924,-9,14,13,
5056,28.2,29.8,1010.03,132.66,-143342,74235,-74611,-8,14,16,
5077,28.2,29.8,1010.03,132.64,-143342,76899,-68385,-10,10,20,
5096,28.2,29.8,1010.03,132.65,-143342,79043,-62282,-8,9,23,
5116,28.2,29.8,1010.03,132.66,-143342,80758,-56148,-8,8,26,
5136,28.2,29.7,1010.02,132.70,-143342,82131,-50106,-8,0,26,
5157,28.2,29.8,1010.02,132.74,-143342,84083,-38898,-9,-4,31,
5177,28.2,29.9,1010.01,132.79,-143342,84695,-33915,-11,-11,33,
5197,28.2,29.8,1010.01,132.82,-142979,84949,-29080,-12,-11,35,
5216,28.2,29.8,1010.00,132.88,-140673,85067,-24657,-9,-11,38,
5236,28.2,29.7,1010.00,132.94,-137462,85028,-20431,-8,-10,40,
5256,28.2,29.8,1009.99,133.02,-134973,84835,-16200,-6,-12,43,
5275,28.2,29.9,1009.98,133.10,-133240,84555,-11948,-5,-15,46,
5295,28.2,29.9,1009.97,133.22,-132593,84070,-7826,-4,-19,48,
5316,28.2,29.8,1009.96,133.30,-131709,83444,-3810,-5,-23,46,
5335,28.2,29.8,1009.94,133.42,-130020,82840,236,-8,-23,49,
5355,28.2,29.7,1009.94,133.48,-129097,82241,4239,-5,-27,49,
5375,28.2,29.7,1009.94,133.48,-127242,81589,8496,-5,-33,49,
5395,28.2,29.8,1009.93,133.58,-125072,80981,12547,-5,-36,49,
5415,28.2,29.9,1009.92,133.66,-124201,80272,16327,-2,-38,54,
5435,28.2,29.9,1009.91,133.72,-125886,79410,19718,-3,-45,54,
5455,28.2,29.8,1009.90,133.77,-129031,78443,22955,-4,-52,50,
5475,28.2,29.8,1009.90,133.82,-132291,77350,26219,-8,-53,51,
5494,28.2,29.8,1009.89,133.85,-138411,76151,29120,-10,-60,46,
5514,28.2,29.7,1009.89,133.85,-142607,74742,32221,-13,-63,42,
5535,28.2,29.7,1009.90,133.80,-143342,73040,35415,-17,-70,39,
5554,28.2,29.8,1009.91,133.72,-143342,70805,38928,-20,-74,44,
5574,28.2,29.7,1009.92,133.65,-143342,67790,42367,-19,-84,38,
5594,28.2,29.8,1009.92,133.61,-143342,64286,45828,-25,-88,42,
5614,28.2,29.8,1009.93,133.51,-143342,60077,49113,-27,-91,41,
5634,28.2,29.7,1009.94,133.49,-143342,55575,52819,-28,-101,37,
5655,28.2,29.8,1009.94,133.48,-143342,45132,60335,-31,-112,49,
5709,28.2,29.7,1009.95,133.32,-143342,32996,67536,-34,-121,51,
5713,28.2,29.9,1009.96,133.27,-143342,26271,70065,-36,-117,53,
5733,28.2,29.7,1009.96,133.23,-143342,19188,71592,-36,-117,47,
5753,28.2,29.7,1009.97,133.16,-143342,11742,72616,-39,-122,43,
5773,28.2,29.8,1009.98,133.12,-143342,3780,73285,-43,-116,46,
5793,28.2,29.8,1009.99,133.03,-143342,-4843,73154,-49,-119,39,
5813,28.2,29.7,1009.99,133.00,-143342,-14367,72065,-53,-122,26,
5833,28.2,29.7,1010.01,132.85,-143342,-24552,70201,-57,-116,10,
5853,28.2,29.8,1010.03,132.70,-143342,-34842,67685,-61,-116,0,
5873,28.2,29.7,1010.04,132.56,-143342,-45591,64505,-69,-123,-3,
5893,28.2,29.8,1010.06,132.43,-143342,-57045,59793,-73,-114,-17,
5913,28.2,29.7,1010.07,132.29,-143342,-68565,53379,-78,-99,-31,
5933,28.2,29.7,1010.09,132.16,-143342,-79821,46318,-82,-81,-42,
5952,28.2,29.7,1010.10,132.01,-143342,-90724,38513,-87,-72,-45,
5973,28.2,29.7,1010.13,131.81,-143342,-101228,29881,-95,-65,-45,
5992,28.2,29.7,1010.15,131.61,-143342,-111085,19998,-103,-37,-47,
6012,28.2,29.6,1010.17,131.44,-143342,-119796,8522,-109,-13,-50,
6032,28.2,29.6,1010.18,131.33,-143342,-127561,-4033,-118,15,-50,
6052,28.2,29.6,1010.19,131.24,-143342,-134518,-17399,-123,28,-51,
6072,28.2,29.7,1010.21,131.10,-143342,-139790,-31154,-124,11,-66,
6092,28.2,29.7,1010.22,130.96,-143342,-142213,-44117,-123,6,-65,
6113,28.2,29.7,1010.23,130.92,-143342,-141050,-69951,-122,22,-45,
6133,28.2,29.7,1010.23,130.87,-143342,-137856,-82254,-119,15,-42,
6152,28.2,29.7,1010.24,130.81,-143342,-132947,-93506,-115,17,-33,
6172,28.2,29.7,1010.26,130.65,-143342,-126700,-103853,-109,11,-30,
6191,28.2,29.7,1010.27,130.54,-143342,-119105,-112520,-100,6,-25,
6212,28.2,29.7,1010.28,130.45,-143342,-110035,-119271,-91,-1,-24,
6231,28.2,29.7,1010.29,130.38,-143342,-100003,-124048,-83,-10,-21,
6251,28.2,29.7,1010.30,130.29,-143342,-89451,-127260,-72,-29,-25,
6271,28.2,29.7,1010.30,130.26,-143342,-78592,-127964,-63,-45,-25,
6291,28.2,29.6,1010.31,130.17,-143342,-68136,-126223,-52,-67,-28,
6311,28.2,29.7,1010.32,130.16,-143342,-58773,-122045,-48,-84,-22,
6331,28.2,29.7,1010.32,130.10,-143342,-50863,-116208,-39,-99,-20,
6351,28.2,29.6,1010.32,130.08,-143342,-44778,-109020,-31,-109,-7,
6371,28.2,29.6,1010.33,130.04,-143342,-40551,-101605,-33,-126,-4,
6390,28.2,29.7,1010.34,129.95,-143342,-38241,-94648,-33,-123,2,
6410,28.2,29.6,1010.36,129.79,-143342,-37957,-88764,-35,-125,4,
6430,28.2,29.6,1010.39,129.53,-143342,-39672,-83947,-37,-118,2,
6450,28.2,29.6,1010.42,129.27,-143342,-43281,-80915,-45,-120,-9,
6470,28.2,29.6,1010.45,129.02,-143342,-48501,-79616,-48,-102,-29,
6490,28.2,29.7,1010.48,128.72,-143342,-54936,-79953,-57,-93,-50,
6510,28.2,29.7,1010.52,128.36,-143342,-62693,-82092,-64,-79,-72,
6530,28.2,29.6,1010.56,127.99,-143342,-70564,-86248,-74,-61,-101,
6550,28.2,29.7,1010.61,127.63,-143342,-77476,-91831,-82,-41,-120,
6570,28.2,29.7,1010.64,127.30,-143342,-83807,-98822,-91,-26,-134,
6591,28.2,29.7,1010.68,126.99,-143342,-92557,-112013,-102,-18,-145,
6611,28.2,29.6,1010.71,126.73,-143342,-94386,-118020,-108,-6,-134,
6630,28.2,29.6,1010.73,126.50,-143342,-94797,-123978,-112,-6,-119,
6649,28.2,29.7,1010.76,126.26,-143342,-93642,-129403,-113,-15,-111,
6669,28.2,29.6,1010.79,126.05,-143342,-90978,-133949,-110,-18,-103,
6689,28.2,29.7,1010.81,125.81,-143342,-87005,-136968,-108,-34,-100,
6709,28.2,29.7,1010.83,125.67,-143342,-82726,-138495,-101,-41,-94,
6729,28.2,29.6,1010.85,125.53,-143342,-78697,-138740,-99,-55,-98,
6749,28.2,29.7,1010.86,125.37,-143342,-75394,-137803,-96,-66,-98,
6769,28.2,29.5,1010.88,125.25,-143342,-73171,-135760,-93,-67,-94,
6789,28.2,29.6,1010.89,125.14,-143342,-72170,-133188,-90,-89,-107,
6809,28.2,29.5,1010.91,125.00,-143342,-72786,-130278,-93,-103,-107,
6829,28.2,29.6,1010.93,124.78,-143342,-74882,-128835,-97,-114,-113,
6848,28.2,29.7,1010.96,124.56,-143342,-78089,-129241,-101,-119,-135,
6869,28.2,29.6,1011.00,124.21,-143342,-82145,-131258,-116,-107,-150,
6888,28.2,29.7,1011.03,123.92,-143342,-88348,-135301,-128,-80,-175,
6908,28.2,29.6,1011.06,123.63,-143342,-95235,-140695,-137,-53,-208,
6928,28.2,29.6,1011.09,123.35,-143342,-101272,-143246,-144,-32,-244,
6982,28.2,29.7,1011.16,122.77,-143342,-109786,-143342,-173,22,-287,
6991,28.2,29.6,1011.20,122.43,-143342,-108163,-143342,-180,24,-288,
7010,28.2,29.6,1011.24,122.07,-143342,-104483,-143342,-184,25,-282,
7030,28.2,29.7,1011.28,121.74,-143342,-99631,-143342,-187,24,-283,
7048,28.2,29.8,1011.31,121.44,-143342,-94106,-143342,-190,16,-272,
7068,28.2,29.6,1011.36,121.06,-143342,-88935,-143342,-186,8,-272,
7089,28.2,29.7,1011.39,120.75,-143342,-83794,-143342,-186,16,-274,
7107,28.2,29.6,1011.44,120.37,-143342,-79585,-143342,-180,9,-282,
7127,28.2,29.6,1011.48,120.03,-143342,-76549,-143342,-178,15,-278,
7147,28.2,29.7,1011.52,119.64,-143342,-74265,-143342,-173,17,-297,
7167,28.2,29.6,1011.56,119.28,-143342,-72970,-143342,-173,1,-309,
7187,28.2,29.7,1011.60,118.94,-143342,-72423,-143342,-174,4,-312,
7207,28.2,29.8,1011.64,118.55,-143342,-72712,-143342,-180,-4,-325,
7227,28.2,29.5,1011.68,118.22,-143342,-74016,-143342,-161,-3,-334,
7246,28.2,29.6,1011.73,117.83,-143342,-76685,-143342,-94,-12,-331,
7267,28.2,29.5,1011.76,117.58,-143342,-82066,-143342,168,-23,-286,
7286,28.2,29.6,1011.76,117.51,-143342,-94920,-143342,1132,341,34,
7306,28.2,29.6,1011.69,118.12,-143342,-135205,-143342,37,159,-261,
7326,28.2,29.6,1011.57,119.19,-143342,-143342,-143342,5,-88,-283,
7346,28.2,29.6,1011.37,120.99,-143342,-143342,-143342,645,-326,-42,
7366,28.2,29.6,1011.54,119.49,-143342,-68932,-143342,1927,-30,-1243,
7386,28.2,29.7,1011.67,118.35,-143342,131070,-143342,1998,216,-1975,
7406,28.2,29.6,1011.48,119.99,-139125,56446,-143342,1741,1019,-1998,
7426,28.2,29.6,1011.57,119.21,44716,-136132,-140201,1967,1863,-1998,
7446,28.2,29.7,1011.59,119.07,143342,-143342,38613,1998,1263,-1116,
7466,28.2,29.7,1011.42,120.53,143342,-141828,143342,1998,1993,0,
7486,28.2,29.6,1011.64,118.61,143342,27090,140756,-76,1998,-1988,
7505,28.2,29.6,1011.58,119.15,143342,143342,-33429,-1820,1998,-1998,
7526,28.2,29.5,1011.60,118.92,143342,-138079,-100161,1304,1998,-1998,
7546,28.2,29.5,1011.54,119.47,143342,-112914,110022,1683,1998,-1998,
7566,28.2,29.6,1011.77,117.49,143342,94080,141509,530,1998,-1998,
7585,28.2,29.6,1011.78,117.35,143342,143320,866,-196,1998,-1995,
7605,28.2,29.6,1011.83,116.91,143342,40232,-139107,195,1998,-1914,
7625,28.2,29.4,1011.88,116.50,143342,-137515,6208,1798,1998,-1451,
7645,28.2,29.5,1012.00,115.43,143342,-104991,142865,1998,1998,-454,
7664,28.2,29.5,1011.98,115.63,143342,108863,143342,1892,1176,-1472,
7685,28.2,29.6,1011.96,115.77,107008,143342,5678,1481,-152,845,
7705,28.2,29.6,1011.96,115.85,-103740,52622,-111199,1167,-485,900,
7724,28.2,29.6,1012.00,115.48,-143342,-136990,-91546,1669,-268,-1107,
7744,28.2,29.6,1012.09,114.69,-143342,-49433,-143342,1998,562,-281,
7764,28.2,29.7,1012.13,114.29,-143342,137847,-34746,1998,918,-417,
7784,28.2,29.6,1012.20,113.67,-143342,17920,68661,1998,478,-213,
7804,28.2,29.6,1012.28,112.99,-143342,-7905,-131193,1998,313,136,
7824,28.2,29.6,1012.35,112.38,-143342,142730,-93292,1998,175,-187,
7844,28.2,29.5,1012.42,111.80,-143342,68481,99098,1998,237,-122,
7864,28.2,29.5,1012.48,111.25,-143342,-88116,-59723,1531,652,800,
7884,28.2,29.5,1012.52,110.94,-143342,100563,27304,402,1980,-1086,
7904,28.2,29.5,1012.56,110.57,-143342,82801,82941,867,1998,-1753,
7923,28.2,29.6,1012.59,110.29,-143342,141115,84599,237,1989,-1970,
7943,28.2,29.5,1012.61,110.10,-143342,8168,54556,-1982,1878,-1998,
7963,28.2,29.5,1012.60,110.22,-143342,8754,-95344,-1786,1998,-1998,
7983,28.2,29.6,1012.57,110.47,-139921,83295,89079,-1991,1998,-1619,
8003,28.2,29.5,1012.55,110.63,40648,-125068,-60011,638,1868,-925,
8025,28.2,29.6,1012.58,110.37,143342,78522,-92391,1537,1624,-1347,
8044,28.2,29.5,1012.63,109.93,143342,-89385,64658,1997,1690,946,
8063,28.2,29.6,1012.67,109.63,143342,34746,93773,1995,1997,-1812,
8083,28.2,29.5,1012.70,109.33,143342,-111584,97619,1998,1998,-1998,
8102,28.2,29.7,1012.71,109.26,143342,62370,97173,1560,1850,-1998,
8123,28.2,29.6,1012.72,109.18,143342,-87005,35818,1992,175,-360,
8142,28.2,29.6,1012.75,108.95,143342,18742,70039,1682,-321,1609,
8162,28.2,29.6,1012.77,108.75,141588,143307,-129333,1864,-868,1898,
8216,28.2,29.5,1012.79,108.60,-143342,-143298,39751,727,523,-808,
8233,28.2,29.5,1012.79,108.54,-143342,-74073,-131368,1876,1152,-1425,
8252,28.2,29.5,1012.80,108.46,-143342,121331,-2642,1592,1391,-1695,
8271,28.2,29.6,1012.82,108.33,-143342,21971,137641,791,1344,-1773,
8291,28.2,29.5,1012.85,108.00,-143342,-136981,415,1108,988,-1159,
8310,28.2,29.6,1012.90,107.64,-143342,-93760,-141220,1741,814,-789,
8329,28.2,29.5,1012.93,107.37,-143342,104352,-140485,1467,704,-784,
8348,28.2,29.4,1012.95,107.14,-143342,139776,-1067,251,729,-1200,
8367,28.2,29.5,1012.98,106.93,-140936,3867,105529,-498,865,-1219,
8386,28.2,29.5,1013.00,106.77,26897,-116090,-90291,-139,1136,-1501,
8405,28.2,29.5,1013.01,106.63,143342,-135791,-125352,455,1263,-1997,
8424,28.2,29.5,1013.04,106.43,143342,-54586,47381,345,983,-1998,
8443,28.2,29.5,1013.06,106.24,143342,133411,-29789,-125,513,-1751,
8463,28.2,29.5,1013.07,106.11,143342,138775,-142681,1403,-428,-281,
8482,28.2,29.5,1013.09,105.99,143342,38237,-108832,1942,-410,189,
8502,28.2,29.4,1013.09,105.92,134548,-84844,-288,1754,-50,52,
8522,28.2,29.5,1013.10,105.84,111706,-136832,-15719,1692,7,10,
8541,28.2,29.6,1013.11,105.76,103932,-139842,-35476,1614,2,6,
8560,28.2,29.4,1013.13,105.64,70078,-73491,-20873,1425,-62,117,
8581,28.2,29.6,1013.14,105.52,-36798,66154,28590,1087,-207,258,
8600,28.2,29.6,1013.15,105.40,-137952,140721,120841,1146,-155,171,
8620,28.2,29.5,1013.16,105.32,-143342,142983,133358,872,58,-71,
8640,28.2,29.6,1013.17,105.26,-143342,108635,39851,768,46,-138,
8660,28.2,29.5,1013.17,105.23,-143342,38745,-89118,988,66,-95,
8680,28.2,29.6,1013.18,105.17,-143342,16371,-141995,1235,45,-117,
8700,28.2,29.5,1013.19,105.08,-143342,22610,-133485,1348,61,-132,
8720,28.2,29.5,1013.21,104.93,-143342,23336,-58642,1342,93,-135,
8740,28.2,29.5,1013.22,104.85,-143342,-7560,50531,1080,85,-218,
8760,28.2,29.5,1013.23,104.76,-143342,-81239,132221,751,112,-356,
8779,28.2,29.4,1013.23,104.72,-143255,-131311,143342,943,136,-338,
8800,28.2,29.5,1013.24,104.61,-100905,-93480,143342,1216,99,-351,
8819,28.2,29.5,1013.26,104.51,45167,-33906,131831,943,124,-506,
8839,28.2,29.5,1013.26,104.43,137917,2716,67742,672,89,-878,
8859,28.2,29.5,1013.27,104.35,143342,-24513,40989,465,103,-1169,
8879,28.2,29.4,1013.28,104.34,143342,-16975,68591,321,-58,-1146,
8899,28.2,29.5,1013.29,104.23,143342,47013,135043,437,-165,-1154,
8919,28.2,29.5,1013.29,104.19,143342,95283,138696,521,-113,-954,
8939,28.2,29.6,1013.29,104.21,143342,119385,30533,964,82,-744,
8959,28.2,29.5,1013.29,104.19,143342,75429,-39007,1591,118,-394,
8980,28.2,29.4,1013.30,104.15,143342,61700,122285,1130,373,-615,
8999,28.2,29.4,1013.30,104.12,143342,116322,119411,823,638,-1125,
9018,28.2,29.5,1013.30,104.11,143342,86843,-1588,906,941,-1649,
9039,28.2,29.6,1013.29,104.20,143342,22290,-34216,1375,733,-1437,
9058,28.2,29.5,1013.29,104.20,143342,62142,57360,1309,441,-1136,
9078,28.2,29.6,1013.29,104.21,143342,77844,25243,929,107,-574,
9098,28.2,29.5,1013.29,104.21,143342,10548,-28363,787,-278,-145,
9118,28.2,29.5,1013.29,104.20,143342,-94329,13746,749,-344,226,
9138,28.2,29.5,1013.30,104.13,127990,-125838,39313,858,-387,183,
9158,28.2,29.4,1013.30,104.09,-32777,-135782,-6763,1174,-295,97,
9178,28.2,29.6,1013.31,104.07,-140013,-103446,-80941,1419,-231,-144,
9198,28.2,29.5,1013.31,104.05,-143342,-83951,-79590,1355,-103,-324,
9217,28.2,29.5,1013.30,104.09,-143342,-82066,-34020,1097,-41,-624,
9238,28.2,29.5,1013.30,104.14,-143342,-118693,993,765,151,-999,
9257,28.2,29.5,1013.30,104.13,-143342,-121428,-60121,683,248,-1026,
9277,28.2,29.6,1013.30,104.15,-143027,-43338,-131604,805,265,-961,
9297,28.2,29.6,1013.30,104.09,-70319,58957,-124245,979,183,-693,
9317,28.2,29.6,1013.30,104.09,105083,117258,-22802,1025,178,-705,
9337,28.2,29.6,1013.31,104.07,143342,76208,65152,918,244,-690,
9357,28.2,29.6,1013.31,104.03,143342,10828,67156,829,295,-665,
9377,28.2,29.5,1013.32,103.98,143342,-39672,23966,803,368,-812,
9397,28.2,29.5,1013.34,103.81,143342,-62632,-38981,840,407,-778,
9417,28.2,29.7,1013.36,103.64,143342,-32309,-75293,1024,300,-737,
9437,28.2,29.5,1013.38,103.41,143342,3933,-5070,962,62,-434,
9492,28.2,29.6,1013.43,103.01,143342,1610,50089,970,-253,-24,
9496,28.2,29.6,1013.44,102.87,135489,-26092,62934,870,-366,144,
9516,28.2,29.5,1013.46,102.69,-22653,-56818,66399,726,-405,179,
9536,28.2,29.6,1013.48,102.55,-141518,-96971,22916,646,-322,-68,
9556,28.2,29.6,1013.50,102.41,-143342,-116235,-85010,805,-156,-267,
9576,28.2,29.6,1013.51,102.28,-143342,-51016,-141981,1091,7,-500,
9596,28.2,29.5,1013.52,102.25,-143342,27676,-140205,1147,198,-740,
9617,28.2,29.6,1013.51,102.34,-143342,52062,-103407,1047,312,-858,
9635,28.2,29.4,1013.50,102.36,-143342,18191,-68311,832,376,-860,
9656,28.2,29.4,1013.50,102.43,-143342,-15986,-98761,797,374,-691,
9675,28.2,29.6,1013.49,102.47,-143342,22500,-138425,868,269,-444,
9695,28.2,29.6,1013.48,102.54,-128900,103910,-99343,803,236,-363,
9715,28.3,29.6,1013.49,102.49,34098,141876,-2121,746,244,-357,
9735,28.3,29.5,1013.49,102.48,141181,143272,77306,633,273,-466,
9755,28.3,29.5,1013.50,102.42,143342,128918,92876,729,311,-559,
9775,28.3,29.6,1013.50,102.42,143342,82866,64032,804,335,-599,
9795,28.3,29.5,1013.50,102.38,143342,41890,20829,805,363,-630,
9815,28.3,29.5,1013.52,102.23,143342,15771,-21910,739,322,-615,
9835,28.3,29.7,1013.54,102.05,143342,15378,-45224,646,187,-517,
9854,28.3,29.4,1013.57,101.75,143342,34536,-54333,533,2,-330,
9875,28.3,29.4,1013.60,101.52,143342,56428,-62676,433,-141,-154,
9894,28.3,29.5,1013.63,101.27,143342,56358,-78019,456,-243,-30,
9915,28.3,29.6,1013.66,101.03,27405,-29570,-81191,744,-271,47,
9935,28.3,29.5,1013.67,100.87,-124061,-52198,-90186,892,-211,-25,
9955,28.3,29.6,1013.69,100.76,-143342,-42546,-120618,784,-128,-134,
9974,28.3,29.3,1013.70,100.65,-143342,4956,-142051,715,-39,-249,
9994,28.3,29.5,1013.70,100.61,-143342,68333,-128826,722,50,-403,
10014,28.3,29.4,1013.70,100.62,-143342,88108,-76636,730,129,-503,
10034,28.3,29.5,1013.71,100.57,-143342,59911,-45740,691,200,-567,
10054,28.3,29.4,1013.71,100.56,-140406,28004,-70175,915,254,-491,
10073,28.3,29.5,1013.71,100.55,-30183,37550,-89486,1047,257,-426,
10094,28.3,29.5,1013.72,100.52,128069,57281,-55466,1024,268,-457,
10113,28.3,29.5,1013.73,100.41,143342,61792,-7966,883,298,-516,
10133,28.3,29.4,1013.74,100.26,143342,63647,14113,867,382,-649,
10153,28.3,29.4,1013.76,100.11,143342,54105,-1920,898,433,-796,
10173,28.3,29.6,1013.78,99.91,143342,12923,-8054,1041,398,-830,
10193,28.3,29.4,1013.80,99.75,143342,-17823,15172,1132,317,-767,
10213,28.3,29.4,1013.81,99.66,143342,-10123,20833,1101,227,-684,
10233,28.3,29.4,1013.82,99.65,143342,-9209,14704,1013,82,-558,
10253,28.3,29.5,1013.81,99.71,143342,-37992,37043,1027,-58,-340,
10272,28.3,29.5,1013.80,99.74,143342,-58808,62781,956,-184,-131,
10293,28.3,29.4,1013.79,99.89,143342,-65813,56481,849,-264,4,
10312,28.3,29.4,1013.78,99.96,131538,-60357,11751,771,-313,52,
10332,28.3,29.5,1013.77,100.04,-21424,-50806,-28560,826,-308,23,
10352,28.3,29.4,1013.78,99.99,-139523,-41978,-48706,898,-252,-84,
10372,28.3,29.5,1013.79,99.90,-143342,-34046,-66486,952,-156,-213,
10393,28.3,29.5,1013.80,99.79,-143342,-25554,-81742,1110,-15,-446,
10413,28.3,29.5,1013.82,99.62,-143342,-24701,-69391,1119,41,-576,
10432,28.3,29.4,1013.84,99.43,-143342,-30703,-67095,1013,74,-624,
10452,28.3,29.4,1013.87,99.20,-143342,-22732,-64032,815,89,-602,
10472,28.3,29.4,1013.89,98.96,-143342,18410,-56516,813,85,-583,
10491,28.3,29.5,1013.92,98.76,-133332,67195,-49196,974,74,-545,
10511,28.3,29.5,1013.94,98.58,-6746,82766,-31657,1238,81,-528,
10531,28.3,29.5,1013.96,98.40,129141,49748,-11274,1293,72,-519,
10551,28.3,29.5,1013.98,98.26,143342,9992,-5271,1356,76,-523,
10571,28.3,29.4,1013.99,98.13,143342,1089,-4265,1284,89,-582,
10591,28.3,29.6,1013.99,98.10,143342,5403,-16419,1101,91,-670,
10611,28.3,29.5,1013.99,98.10,143342,468,-35896,976,28,-638,
10631,28.3,29.4,1013.99,98.12,143342,4357,-28573,967,-71,-498,
10651,28.3,29.4,1013.98,98.21,143342,31797,-2165,939,-130,-316,
10671,28.3,29.4,1013.97,98.29,143342,52841,3893,982,-160,-215,
10691,28.3,29.4,1013.96,98.34,143342,19223,-13457,1005,-166,-132,
10710,28.3,29.4,1013.96,98.41,127461,-30979,-30366,1078,-160,-27,
10764,28.3,29.4,1013.95,98.44,-117525,26971,-35958,1144,-122,54,
10774,28.3,29.5,1013.96,98.42,-142817,37835,-18799,1023,-119,12,
10794,28.3,29.5,1013.96,98.37,-143342,20173,-10276,944,-96,10,
10813,28.3,29.6,1013.97,98.33,-143342,-975,-32764,920,-83,38,
10832,28.3,29.6,1013.98,98.24,-143342,6041,-56166,907,-80,80,
10851,28.3,29.4,1013.98,98.18,-143342,33831,-52215,882,-88,51,
10871,28.3,29.5,1013.99,98.10,-143342,38535,-31119,914,-84,35,
10891,28.3,29.5,1014.01,97.94,-143342,24810,-21354,1015,-67,50,
10910,28.3,29.5,1014.03,97.79,-143342,23275,-31723,1136,-64,74,
10930,28.3,29.4,1014.05,97.58,-143342,46554,-41006,1178,-67,67,
10949,28.3,29.5,1014.08,97.38,-143342,67388,-22885,1138,-66,58,
10969,28.3,29.4,1014.10,97.15,-143342,68289,13693,1065,-59,75,
10989,28.3,29.5,1014.13,96.92,-143342,64986,33770,1007,-43,58,
11009,28.3,29.4,1014.15,96.73,-143342,59941,26096,981,-48,46,
11029,28.3,29.5,1014.17,96.57,-143342,51695,15435,964,-36,-4,
11049,28.3,29.5,1014.19,96.38,-143342,37030,16664,984,-20,-42,
11069,28.3,29.3,1014.21,96.25,-143342,19722,38049,965,0,-68,
11089,28.3,29.5,1014.21,96.24,-143342,1260,65218,1028,49,-112,
11109,28.3,29.4,1014.21,96.19,-143342,-15286,70542,1144,82,-132,
11128,28.3,29.5,1014.21,96.23,-143342,-10298,47753,1181,101,-114,
11149,28.3,29.3,1014.21,96.18,-143342,7275,31981,1198,97,-87,
11168,28.3,29.5,1014.22,96.13,-140319,1470,53322,1075,96,-73,
11188,28.3,29.4,1014.22,96.11,-81655,-20706,84476,969,119,-68,
11208,28.3,29.4,1014.23,96.05,41890,-26127,82744,1015,134,-77,
11228,28.3,29.5,1014.24,95.92,134255,-18628,74431,1093,136,-80,
11248,28.3,29.4,1014.26,95.79,143342,2275,75735,1087,131,-101,
11268,28.3,29.4,1014.28,95.63,143342,23235,75993,1104,123,-134,
11288,28.3,29.4,1014.29,95.49,143342,27545,88300,1079,120,-179,
11308,28.3,29.3,1014.30,95.40,143342,27890,101211,1120,120,-221,
11329,28.3,29.4,1014.31,95.31,143342,55400,74003,1082,95,-246,
11349,28.3,29.5,1014.32,95.28,143342,61543,49166,1080,66,-212,
11368,28.3,29.4,1014.31,95.34,143342,60716,45206,1004,20,-142,
11388,28.3,29.5,1014.30,95.42,143342,62326,49621,941,-26,-53,
11407,28.3,29.3,1014.30,95.44,143342,55938,35879,856,-52,42,
11427,28.3,29.5,1014.30,95.45,143342,43133,9839,883,-75,120,
11447,28.3,29.3,1014.29,95.48,143342,33538,-17171,953,-111,186,
11467,28.3,29.5,1014.30,95.45,143342,23922,-30541,1062,-119,247,
11487,28.3,29.5,1014.30,95.44,135743,16161,-31412,1072,-117,300,
11507,28.3,29.4,1014.30,95.45,78610,23301,-26687,1107,-106,332,
11527,28.3,29.5,1014.30,95.44,17740,45416,-18410,1010,-78,333,
11547,28.3,29.4,1014.30,95.46,-20431,60585,-16603,923,-65,332,
11566,28.3,29.4,1014.30,95.44,-46418,42844,-27912,841,-54,343,
11587,28.3,29.4,1014.30,95.41,-63258,9244,-43312,824,-49,398,
11607,28.3,29.6,1014.31,95.37,-80224,-5193,-37677,864,-45,445,
11626,28.3,29.6,1014.31,95.32,-97746,-468,-16432,973,-29,454,
11646,28.3,29.4,1014.32,95.29,-110923,12127,-3565,964,-27,432,
11666,28.3,29.5,1014.33,95.18,-121633,17202,-10871,958,-34,426,
11686,28.3,29.5,1014.34,95.09,-133411,9152,-30135,932,-36,434,
11706,28.3,29.4,1014.35,94.97,-142625,-726,-43631,953,-41,451,
11726,28.3,29.5,1014.36,94.90,-143342,-608,-45106,916,-57,465,
11746,28.3,29.5,1014.38,94.77,-143342,9104,-38180,909,-66,467,
11766,28.3,29.5,1014.39,94.64,-143342,7179,-27833,895,-70,471,
11786,28.3,29.6,1014.40,94.57,-143342,-6571,-30931,938,-67,487,
11806,28.3,29.5,1014.41,94.45,-143342,28752,-70525,1050,-69,446,
11827,28.3,29.5,1014.42,94.38,-143342,55553,-61031,1005,-56,337,
11846,28.3,29.4,1014.44,94.24,-143342,41391,-43688,967,-14,193,
11865,28.3,29.4,1014.45,94.11,-143342,7345,-50356,930,51,12,
11885,28.3,29.4,1014.47,93.96,-143342,-1010,-60668,1000,155,-232,
11905,28.3,29.4,1014.48,93.83,-143342,8391,-54661,1022,292,-504,
11925,28.3,29.4,1014.49,93.77,-143342,16261,-40893,979,443,-756,
11945,28.3,29.4,1014.49,93.80,-143342,5831,-35616,898,546,-875,
11965,28.3,29.4,1014.47,93.95,-143342,-31836,-42888,795,568,-838,
11985,28.3,29.5,1014.46,94.05,-143342,-68718,-64719,826,498,-631,
12005,28.3,29.5,1014.44,94.17,-143342,-65358,-70043,894,386,-374,
12024,28.3,29.5,1014.44,94.25,-143342,-51620,-29391,854,300,-170,
12078,28.3,29.6,1014.43,94.30,-143342,-63844,-27685,819,156,102,
12093,28.3,29.6,1014.43,94.28,-143307,-53725,-35354,869,123,127,
12112,28.3,29.4,1014.44,94.24,-120491,-39151,-14052,828,109,136,
12131,28.3,29.4,1014.44,94.18,-38723,-21345,13768,785,112,112,
12150,28.3,29.5,1014.45,94.12,52513,-17990,31080,770,120,69,
12169,28.3,29.4,1014.46,94.07,130401,-32038,32926,799,132,11,
12188,28.3,29.5,1014.46,94.03,143342,-42686,28131,878,148,-6,
12207,28.3,29.4,1014.46,94.01,143342,-34251,21949,886,167,-28,
12227,28.3,29.5,1014.47,93.92,143342,-6715,19796,878,193,-87,
12246,28.3,29.5,1014.47,93.96,143342,20698,35542,910,204,-175,
12265,28.3,29.5,1014.47,93.94,143342,32510,69212,919,216,-243,
12284,28.3,29.5,1014.47,93.92,143342,34606,95882,892,216,-284,
12305,28.3,29.5,1014.48,93.86,143342,37240,103018,893,197,-301,
12324,28.3,29.4,1014.50,93.72,143342,35336,85417,890,142,-284,
12343,28.3,29.4,1014.52,93.49,143342,25663,58673,916,50,-202,
12363,28.3,29.5,1014.55,93.25,143342,13973,43942,975,-36,-71,
12383,28.3,29.5,1014.57,93.06,143342,28879,41947,1034,-94,58,
12403,28.3,29.4,1014.59,92.92,143342,62645,23353,1059,-140,151,
12423,28.3,29.5,1014.61,92.75,143342,63984,-7052,1095,-188,246,
12442,28.3,29.4,1014.62,92.69,142988,30375,-6580,1144,-222,350,
12463,28.3,29.4,1014.63,92.55,93953,15111,14358,1038,-231,400,
12482,28.3,29.5,1014.64,92.47,-44454,34260,6851,955,-216,367,
12502,28.3,29.4,1014.65,92.36,-135397,38933,-28586,991,-208,317,
12522,28.3,29.5,1014.67,92.22,-143342,16966,-51056,1087,-194,269,
12542,28.3,29.4,1014.68,92.14,-143342,1876,-50596,1153,-161,200,
12562,28.3,29.3,1014.69,92.03,-143342,4681,-39983,1098,-102,60,
12582,28.3,29.3,1014.70,91.95,-143342,7428,-23979,1083,-13,-104,
12602,28.3,29.4,1014.70,91.92,-143342,3316,-18873,1070,80,-247,
12622,28.3,29.4,1014.70,91.91,-143342,5407,-28231,1123,166,-354,
12642,28.3,29.4,1014.71,91.90,-143342,16353,-32900,1104,236,-427,
12661,28.3,29.5,1014.70,91.99,-143342,15500,-25843,1057,294,-463,
12682,28.3,29.4,1014.70,91.98,-143342,-5320,-23743,1015,300,-416,
12701,28.3,29.4,1014.70,91.95,-143342,-16143,-33827,1055,271,-320,
12721,28.3,29.4,1014.71,91.88,-143342,-16568,-28756,1076,230,-249,
12741,28.3,29.6,1014.72,91.79,-143342,-24924,708,971,192,-196,
12762,28.3,29.5,1014.73,91.70,-62208,-10390,30143,1037,154,-112,
12782,28.3,29.5,1014.74,91.64,82748,21393,36286,1063,150,-133,
12801,28.3,29.4,1014.75,91.56,142174,33298,39081,986,160,-206,
12821,28.3,29.4,1014.75,91.51,143342,16305,31893,967,168,-231,
12841,28.3,29.4,1014.75,91.48,143342,1544,25773,1019,186,-237,
12861,28.3,29.5,1014.76,91.46,143342,11865,25860,1079,202,-233,
12880,28.3,29.4,1014.76,91.45,143342,48155,29981,1073,197,-258,
12901,28.3,29.5,1014.76,91.43,143342,74803,35761,1011,190,-300,
12920,28.3,29.4,1014.77,91.38,143342,72095,38088,926,166,-327,
12940,28.3,29.5,1014.77,91.33,143342,47810,37292,953,108,-293,
12960,28.3,29.5,1014.79,91.17,143342,22925,40114,1024,60,-241,
12980,28.3,29.5,1014.81,91.02,143342,9804,32361,1050,-13,-126,
13000,28.3,29.4,1014.81,90.95,143342,7433,22351,1048,-63,-14,
13020,28.3,29.4,1014.83,90.86,143342,17259,9021,1099,-87,42,
13040,28.3,29.5,1014.83,90.79,143342,31867,-14551,1060,-117,109,
13060,28.3,29.4,1014.84,90.72,143342,29973,-26648,1097,-139,155,
13080,28.3,29.4,1014.85,90.68,143342,13116,-8653,1080,-155,217,
13099,28.3,29.4,1014.86,90.59,143342,6151,15960,1046,-153,232,
13120,28.3,29.4,1014.86,90.53,129749,8251,15964,991,-142,189,
13139,28.3,29.3,1014.87,90.45,78623,4086,-7765,950,-144,185,
13159,28.3,29.5,1014.88,90.40,20593,498,-26193,1063,-143,154,
13179,28.3,29.5,1014.88,90.40,-36146,-4344,-27842,1085,-145,136,
13199,28.3,29.5,1014.89,90.29,-89831,-1050,-27321,1120,-136,97,
13220,28.3,29.4,1014.90,90.23,-143338,-301,-10955,1134,-115,0,
13240,28.3,29.3,1014.91,90.17,-143342,4668,-1575,1196,-94,-29,
13260,28.3,29.3,1014.91,90.11,-143342,14354,-11340,1177,-84,-45,
13279,28.3,29.4,1014.92,90.02,-142607,16528,-20475,1051,-86,-84,
13299,28.3,29.3,1014.93,89.95,-125461,3626,-16826,960,-85,-73,
13319,28.3,29.3,1014.94,89.90,-93576,4396,-9170,961,-82,-61,
13369,28.3,29.4,1014.95,89.74,-23065,-21,-10657,1096,-86,-37,
13379,28.3,29.4,1014.96,89.66,5740,-10093,-17005,1100,-89,-28,
13398,28.3,29.3,1014.97,89.64,26022,-2345,-16804,1154,-92,-10,
13418,28.3,29.3,1014.97,89.63,37953,20492,-5455,1059,-96,-16,
13438,28.3,29.2,1014.97,89.59,50036,26481,2905,1002,-88,-48,
13458,28.3,29.3,1014.98,89.52,70385,2450,-10329,937,-88,-30,
13478,28.3,29.4,1014.99,89.46,85010,-19687,-29544,1002,-97,7,
13498,28.3,29.5,1014.99,89.41,83059,-15491,-31793,1025,-109,41,
13518,28.3,29.5,1014.99,89.41,64881,10618,-15933,994,-118,52,
13538,28.3,29.4,1015.00,89.35,41133,22299,1767,1042,-112,39,
13558,28.3,29.3,1015.01,89.29,21367,6020,3845,999,-116,76,
13577,28.3,29.4,1015.02,89.18,-3386,-4125,-12499,994,-132,111,
13597,28.3,29.3,1015.02,89.13,-42791,-2852,-29373,1014,-150,123,
13618,28.3,29.4,1015.03,89.04,-96442,-1942,-27356,1011,-152,134,
13637,28.3,29.4,1015.04,88.96,-138565,-5766,-15767,1040,-144,122,
13657,28.3,29.2,1015.05,88.94,-143342,-7070,-9909,1085,-149,139,
13677,28.3,29.4,1015.06,88.84,-143342,494,-7144,1133,-150,115,
13698,28.3,29.4,1015.07,88.77,-143342,-8028,-19070,996,-115,25,
13718,28.3,29.4,1015.08,88.68,-143342,-6969,-35796,1059,-95,-11,
13738,28.3,29.4,1015.09,88.58,-143342,-13930,-42927,1038,-91,-24,
13757,28.3,29.3,1015.10,88.50,-143342,-19923,-28660,979,-53,-78,
13777,28.3,29.3,1015.11,88.40,-143342,-18598,-18851,970,-12,-118,
13797,28.3,29.3,1015.11,88.34,-143342,-13046,-20584,1002,15,-133,
13817,28.3,29.4,1015.13,88.19,-143342,-11795,-28971,1093,43,-141,
13836,28.3,29.4,1015.14,88.16,-143342,-10373,-33153,1116,52,-143,
13857,28.3,29.5,1015.15,88.07,-143342,-16668,-25003,1018,80,-147,
13876,28.3,29.4,1015.16,87.94,-143342,-26009,-20728,946,103,-139,
13896,28.3,29.4,1015.16,87.91,-143342,-23135,-21070,925,108,-117,
13916,28.3,29.4,1015.16,87.95,-143342,-6335,-11847,902,110,-93,
13936,28.4,29.3,1015.16,87.92,-143342,-122,1190,909,104,-89,
13956,28.4,29.4,1015.18,87.79,-143018,-9651,5897,914,102,-94,
13976,28.4,29.3,1015.19,87.68,-111361,-17766,-5573,1020,97,-47,
13996,28.4,29.4,1015.20,87.64,-26849,-10014,-6741,942,94,-27,
14016,28.4,29.3,1015.20,87.59,55575,3128,13111,876,91,-38,
14036,28.4,29.4,1015.21,87.51,125527,7625,35560,908,85,-60,
14056,28.4,29.5,1015.22,87.39,143338,3180,41943,896,98,-87,
14076,28.4,29.4,1015.23,87.35,143342,-551,35140,929,122,-97,
14096,28.4,29.4,1015.24,87.23,143342,4983,35004,965,134,-117,
14115,28.4,29.4,1015.26,87.11,143342,11589,42713,972,144,-171,
14135,28.4,29.4,1015.27,87.03,143342,13825,49122,893,152,-222,
14156,28.4,29.5,1015.28,86.94,143342,34260,60620,1019,120,-290,
14176,28.4,29.4,1015.29,86.85,143342,44891,63450,996,106,-318,
14196,28.4,29.4,1015.29,86.80,143342,40083,53904,1037,72,-287,
14215,28.4,29.4,1015.29,86.81,143342,32480,54963,1013,15,-204,
14235,28.4,29.5,1015.29,86.80,143342,35210,55545,1030,-29,-117,
14255,28.4,29.4,1015.29,86.83,143342,47757,39445,962,-71,-38,
14275,28.4,29.6,1015.30,86.76,143342,52088,14196,1000,-104,10,
14295,28.4,29.4,1015.30,86.70,143342,29426,-2716,1109,-126,89,
14315,28.4,29.4,1015.31,86.65,143342,14100,4948,1126,-136,155,
14335,28.4,29.4,1015.32,86.56,138534,29452,15631,1079,-136,163,
14354,28.4,29.4,1015.33,86.50,80395,52696,6746,959,-137,137,
14374,28.4,29.4,1015.34,86.36,-7258,54486,-12499,917,-142,104,
14395,28.4,29.4,1015.35,86.28,-89971,24290,-23471,987,-134,118,
14414,28.4,29.5,1015.36,86.17,-139203,1220,-22054,1026,-121,140,
14434,28.4,29.4,1015.37,86.12,-143342,6938,-9843,1094,-110,123,
14454,28.4,29.4,1015.38,86.04,-143342,15955,5726,1064,-96,84,
14474,28.4,29.4,1015.38,86.04,-143342,10066,7586,993,-81,65,
14494,28.4,29.2,1015.38,86.04,-143342,7236,-14595,939,-66,75,
14514,28.4,29.3,1015.38,86.02,-143342,18252,-43496,851,-69,52,
14534,28.4,29.4,1015.38,86.00,-143342,20339,-49406,855,-61,15,
14554,28.4,29.3,1015.38,86.06,-143342,-4825,-39948,982,-47,-17,
14574,28.4,29.3,1015.38,86.01,-143342,-47381,-40880,1159,-40,-20,
14593,28.4,29.3,1015.40,85.89,-143342,-55680,-31504,1058,-48,30,
14614,28.4,29.4,1015.42,85.74,-143342,-5665,-538,1021,-28,-1,
14634,28.4,29.5,1015.43,85.60,-143342,55199,-19569,1135,7,-116,
14687,28.4,29.3,1015.47,85.26,-143342,-13899,-59631,1040,17,-191,
14693,28.4,29.4,1015.48,85.16,-143342,-32064,-37625,1042,92,-273,
14713,28.4,29.4,1015.50,85.02,-143342,-42857,-19180,1101,169,-330,
14733,28.4,29.4,1015.52,84.84,-143342,-30244,-3276,1070,204,-383,
14753,28.4,29.5,1015.54,84.67,-143342,-29159,-1036,1082,223,-384,
14773,28.4,29.4,1015.55,84.54,-143342,-18768,-28231,1226,218,-339,
14793,28.4,29.4,1015.57,84.41,-143342,1811,-48448,1128,194,-263,
14813,28.4,29.5,1015.58,84.29,-143215,10294,-34566,1011,172,-238,
14833,28.4,29.4,1015.60,84.17,-96250,-15575,1505,999,160,-241,
14852,28.4,29.5,1015.61,84.01,57203,-41903,36701,1010,159,-207,
14873,28.4,29.4,1015.63,83.90,140078,-20693,53357,995,178,-210,
14892,28.4,29.5,1015.63,83.85,143342,26184,35669,995,185,-241,
14912,28.4,29.4,1015.64,83.74,143342,51362,9660,1061,180,-289,
14932,28.4,29.4,1015.65,83.67,143342,36400,3530,1121,169,-323,
14952,28.4,29.3,1015.67,83.55,143342,10412,28021,1154,131,-307,
14972,28.4,29.4,1015.68,83.45,143342,12687,70818,1112,91,-276,
14992,28.4,29.3,1015.68,83.42,143342,38841,76300,938,42,-253,
15012,28.4,29.6,1015.68,83.42,143342,44966,28857,824,-22,-199,
15032,28.4,29.5,1015.69,83.37,143342,8198,-7923,886,-112,-93,
15052,28.4,29.3,1015.69,83.35,143342,-28113,6120,1017,-158,12,
15072,28.4,29.4,1015.70,83.26,143342,-19525,16804,1062,-172,71,
15092,28.4,29.5,1015.71,83.16,141951,9358,-1181,1117,-182,100,
15113,28.4,29.4,1015.72,83.11,-4637,30415,-4501,1071,-184,93,
15133,28.4,29.4,1015.72,83.08,-102011,18191,3005,1010,-167,48,
15151,28.4,29.4,1015.72,83.09,-142288,-7721,-11361,1023,-137,0,
15171,28.4,29.5,1015.73,83.04,-143342,-16502,-25773,980,-122,-15,
15191,28.4,29.4,1015.74,82.96,-143342,11983,-15675,946,-86,-54,
15211,28.4,29.4,1015.74,82.89,-143342,36015,-415,912,-37,-111,
15231,28.4,29.5,1015.75,82.86,-143342,23555,-949,879,1,-140,
15251,28.4,29.5,1015.75,82.81,-143342,83,-15995,954,18,-121,
15271,28.4,29.4,1015.76,82.71,-143342,-8903,-24985,1093,22,-95,
15291,28.4,29.5,1015.77,82.65,-143154,-5411,-13654,1102,31,-82,
15310,28.4,29.4,1015.78,82.55,-120767,9673,2113,1062,40,-79,
15331,28.4,29.6,1015.79,82.51,-48103,29093,18147,950,56,-104,
15351,28.4,29.4,1015.79,82.46,48615,36308,18926,916,72,-130,
15370,28.4,29.6,1015.80,82.36,130939,23069,4803,845,82,-155,
15390,28.4,29.6,1015.81,82.28,143342,6125,-5823,891,76,-166,
15410,28.4,29.6,1015.82,82.23,143342,4151,7214,997,75,-180,
15430,28.4,29.5,1015.82,82.18,143342,26162,24893,1029,83,-223,
15450,28.4,29.5,1015.82,82.18,143342,49043,21739,1058,90,-268,
15470,28.4,29.5,1015.82,82.18,143342,47954,7306,1046,95,-306,
15490,28.4,29.5,1015.82,82.24,143342,29623,12871,999,82,-305,
15510,28.4,29.6,1015.81,82.33,143342,17482,29859,937,64,-279,
15530,28.4,29.5,1015.80,82.42,143342,8273,32033,999,36,-227,
15550,28.4,29.6,1015.79,82.49,143342,3495,18965,1020,0,-118,
15570,28.4,29.6,1015.78,82.55,143342,12398,-4764,1110,-66,57,
15591,28.4,29.6,1015.78,82.60,143342,8596,18265,1110,-92,101,
15610,28.4,29.5,1015.78,82.58,143342,1802,37349,1064,-104,132,
15629,28.4,29.6,1015.79,82.51,143342,-4178,21713,1053,-108,167,
15649,28.4,29.6,1015.80,82.40,143342,389,-10360,1066,-107,198,
15669,28.4,29.4,1015.82,82.26,136762,6138,-21835,1023,-102,196,
15689,28.4,29.5,1015.83,82.17,99500,-2572,-7227,1000,-101,196,
15709,28.4,29.4,1015.84,82.09,59968,-16756,13326,1020,-82,210,
15729,28.4,29.4,1015.84,82.03,35249,-18305,20400,1014,-65,226,
15749,28.4,29.4,1015.85,81.97,24679,-4060,2673,966,-49,221,
15769,28.4,29.4,1015.86,81.88,21905,8386,-21131,958,-43,205,
15788,28.4,29.6,1015.87,81.79,18869,3500,-27610,1030,-36,200,
15809,28.4,29.4,1015.88,81.71,15316,-18300,-7840,1041,-30,212,
15828,28.4,29.5,1015.89,81.62,21625,-36964,9940,1023,-15,227,
15848,28.4,29.4,1015.90,81.53,44441,-26547,-2712,1071,-6,230,
15868,28.4,29.5,1015.91,81.46,74011,5123,-22780,1086,-5,215,
15888,28.4,29.3,1015.92,81.36,103893,25676,-26311,1035,3,181,
15908,28.4,29.5,1015.93,81.27,135423,13846,-26219,1009,22,174,
15928,28.4,29.5,1015.94,81.17,143342,-7122,-20811,1005,32,192,
15948,28.4,29.5,1015.96,81.04,143342,-9191,-2065,1053,47,182,
16000,28.4,29.4,1016.00,80.66,143342,-1671,-9432,1068,135,76,
16010,28.4,29.4,1016.01,80.55,143342,-8592,-24766,1046,166,51,
16029,28.4,29.4,1016.03,80.39,143342,3333,-6335,1046,194,-5,
16049,28.4,29.4,1016.05,80.19,143342,25195,31311,1044,230,-78,
16069,28.4,29.4,1016.07,80.01,143342,41313,58835,982,276,-168,
16088,28.4,29.4,1016.09,79.88,143342,27142,69041,962,322,-250,
16108,28.4,29.5,1016.11,79.73,143342,-11099,76317,973,358,-290,
16127,28.4,29.3,1016.12,79.58,143342,-20055,79078,1001,367,-305,
16147,28.4,29.3,1016.13,79.50,143342,1811,53838,965,348,-304,
16167,28.4,29.4,1016.15,79.36,143342,20811,26998,937,296,-284,
16187,28.4,29.4,1016.16,79.29,143342,34330,26368,970,225,-245,
16207,28.4,29.3,1016.15,79.34,143342,38723,36741,982,157,-178,
16227,28.4,29.5,1016.14,79.48,143342,25698,46103,1039,112,-83,
16247,28.4,29.4,1016.12,79.59,143342,12460,57509,1066,78,27,
16267,28.4,29.4,1016.11,79.68,143342,15391,58331,944,48,110,
16287,28.4,29.4,1016.10,79.77,143342,17626,36395,908,20,169,
16306,28.4,29.4,1016.09,79.88,143342,-3889,21713,961,-2,232,
16327,28.4,29.4,1016.08,80.00,143342,-24517,35468,1057,2,271,
16346,28.4,29.3,1016.08,80.00,143342,-15225,46777,1087,35,270,
16366,28.4,29.5,1016.08,79.93,143342,14301,29054,1054,45,245,
16386,28.4,29.4,1016.08,79.92,143342,33123,10298,1027,43,223,
16406,28.4,29.4,1016.10,79.83,143342,29876,17018,989,52,199,
16426,28.4,29.5,1016.10,79.79,143342,18803,45937,966,93,132,
16446,28.4,29.5,1016.11,79.67,143342,9533,63288,932,169,30,
16466,28.4,29.5,1016.13,79.51,143342,9835,47451,944,230,-38,
16486,28.4,29.3,1016.15,79.34,143342,14949,28201,942,283,-89,
16507,28.4,29.4,1016.17,79.19,143342,46103,38605,1040,381,-284,
16527,28.4,29.4,1016.19,78.99,143342,48041,39593,972,416,-374,
16546,28.4,29.4,1016.21,78.79,143342,43246,53865,976,438,-396,
16566,28.4,29.3,1016.23,78.66,143342,55790,69523,893,460,-427,
16585,28.4,29.3,1016.25,78.49,143342,63721,60261,826,448,-450,
16605,28.4,29.2,1016.26,78.42,143342,45640,61814,846,386,-414,
16625,28.4,29.3,1016.27,78.30,143342,26411,81733,885,324,-356,
16645,28.4,29.3,1016.28,78.26,143342,14896,81414,923,284,-311,
16665,28.4,29.6,1016.27,78.30,143342,-4318,48020,922,233,-242,
16685,28.4,29.5,1016.26,78.41,143342,-24084,21056,960,179,-129,
16705,28.4,29.4,1016.25,78.52,143342,-13483,19481,1027,133,-9,
16725,28.4,29.4,1016.24,78.54,143342,27160,21328,1005,102,50,
16745,28.4,29.5,1016.24,78.58,143342,41956,12114,1038,72,95,
16764,28.4,29.5,1016.23,78.63,143342,16016,26687,1006,37,176,
16784,28.4,29.5,1016.24,78.58,143342,-1032,59600,1074,19,221,
16805,28.4,29.4,1016.24,78.53,143342,5110,52740,961,30,218,
16824,28.4,29.4,1016.25,78.47,143342,12333,14866,893,20,206,
16844,28.4,29.5,1016.27,78.31,143342,3189,9506,883,21,224,
16864,28.4,29.3,1016.28,78.21,143342,1487,25777,934,52,211,
16884,28.4,29.4,1016.30,78.03,143342,2913,24771,1019,76,190,
16904,28.4,29.4,1016.32,77.88,143342,-3215,17994,1104,94,174,
16924,28.4,29.3,1016.34,77.74,143342,-1487,21883,1234,108,179,
16944,28.4,29.3,1016.36,77.53,143342,23537,19066,1184,133,163,
16964,28.4,29.4,1016.38,77.38,143342,49721,5223,1121,158,127,
16985,28.4,29.4,1016.40,77.19,143342,26180,43640,1001,227,90,
17005,28.4,29.4,1016.41,77.05,143342,22999,60134,959,279,63,
17024,28.4,29.4,1016.43,76.91,143342,32707,45600,987,312,-19,
17044,28.4,29.4,1016.45,76.78,143342,26538,29973,1087,334,-109,
17063,28.4,29.4,1016.46,76.64,143342,-568,39379,1127,356,-163,
17083,28.4,29.3,1016.48,76.52,143342,-1089,58296,1114,371,-217,
17103,28.4,29.5,1016.49,76.36,143342,29741,45403,1047,353,-261,
17123,28.4,29.4,1016.49,76.40,143342,40656,16143,1027,299,-237,
17143,28.4,29.3,1016.48,76.50,143342,29098,26298,1026,258,-184,
17163,28.4,29.4,1016.46,76.65,143342,34374,59955,1024,226,-128,
17183,28.4,29.4,1016.45,76.75,143342,36028,69680,1048,214,-70,
17203,28.5,29.4,1016.44,76.85,143342,13833,62356,1130,210,16,
17223,28.5,29.4,1016.43,76.96,143342,997,56266,1069,231,84,
17243,28.5,29.4,1016.42,76.98,143342,11930,45836,1097,245,96,
17263,28.5,29.4,1016.43,76.94,143342,13321,33998,1072,267,60,
17315,28.5,29.4,1016.45,76.74,143342,33197,40621,1074,477,-243,
17328,28.5,29.3,1016.47,76.57,143342,21271,44747,1068,551,-371,
17347,28.5,29.3,1016.49,76.38,143342,15238,71400,1053,610,-472,
17366,28.5,29.5,1016.51,76.22,143342,21306,95606,1121,643,-558,
17386,28.5,29.4,1016.53,76.02,143342,18243,118378,1184,632,-623,
17404,28.5,29.3,1016.55,75.87,143342,17600,134203,1157,591,-621,
17424,28.5,29.4,1016.58,75.66,143342,22019,122880,1092,515,-594,
17443,28.5,29.6,1016.58,75.65,143342,16170,98126,1040,423,-468,
17463,28.5,29.5,1016.56,75.81,143342,24460,77774,987,331,-305,
17483,28.5,29.5,1016.54,75.96,143342,48934,58738,996,228,-103,
17502,28.5,29.4,1016.53,76.04,143342,62278,34908,995,159,33,
17522,28.5,29.4,1016.53,76.10,143342,46274,21411,1032,86,140,
17542,28.5,29.5,1016.52,76.13,143342,20724,30795,1019,38,209,
17561,28.5,29.4,1016.52,76.13,143342,3377,34803,985,25,267,
17581,28.5,29.5,1016.52,76.11,143342,-1071,12534,941,23,296,
17601,28.5,29.4,1016.53,76.05,143342,-704,-18073,947,9,310,
17621,28.5,29.3,1016.54,75.96,143342,-7511,-28669,989,-5,336,
17641,28.5,29.4,1016.56,75.80,143342,-9655,-15124,1036,14,311,
17661,28.5,29.4,1016.57,75.74,143342,-1063,2506,1018,50,275,
17681,28.5,29.4,1016.58,75.64,143342,6903,2966,992,72,247,
17701,28.5,29.4,1016.59,75.51,143342,9642,1684,860,90,227,
17721,28.5,29.4,1016.60,75.42,143342,14345,21975,831,122,180,
17740,28.5,29.4,1016.61,75.33,143342,7122,39921,775,174,86,
17761,28.5,29.3,1016.62,75.24,143342,-18103,34833,823,224,8,
17780,28.5,29.4,1016.64,75.11,143342,-31889,29277,911,266,-31,
17800,28.5,29.4,1016.65,75.04,143342,2712,43496,1010,289,-84,
17820,28.5,29.4,1016.67,74.84,143342,58065,56735,1107,316,-198,
17840,28.5,29.5,1016.69,74.65,143342,72686,43509,914,323,-301,
17860,28.5,29.4,1016.72,74.44,143342,52338,28087,789,300,-355,
17880,28.5,29.3,1016.73,74.28,143342,37533,38128,796,248,-358,
17900,28.5,29.3,1016.75,74.14,143342,41138,54652,900,175,-307,
17921,28.5,29.4,1016.76,74.05,143342,35354,35665,995,-23,-31,
17941,28.5,29.3,1016.76,74.02,143342,11051,5709,1049,-101,134,
17960,28.5,29.3,1016.76,74.07,143342,-19193,3307,1089,-167,287,
17979,28.5,29.4,1016.75,74.11,142690,-26578,20615,1100,-187,401,
18000,28.5,29.3,1016.75,74.18,82901,4392,12271,1064,-193,434,
18019,28.5,29.4,1016.74,74.19,-70743,23384,-5958,1081,-190,423,
18039,28.5,29.5,1016.74,74.20,-141658,4003,-19853,1071,-175,379,
18059,28.5,29.4,1016.75,74.16,-143342,-26744,-34833,1041,-145,311,
18079,28.5,29.4,1016.76,74.02,-143342,-40783,-46974,1025,-90,203,
18099,28.5,29.4,1016.79,73.83,-143342,-37786,-44016,983,-8,48,
18119,28.5,29.3,1016.82,73.57,-143342,-25156,-29141,954,120,-151,
18139,28.5,29.5,1016.84,73.39,-143342,-9261,-31062,968,268,-339,
18159,28.5,29.4,1016.85,73.28,-143342,5604,-55978,993,385,-467,
18179,28.5,29.4,1016.85,73.26,-143342,14800,-81655,1013,438,-505,
18199,28.5,29.4,1016.86,73.18,-143342,12630,-84892,944,442,-493,
18219,28.5,29.5,1016.86,73.18,-143342,-4707,-79104,887,403,-413,
18238,28.5,29.4,1016.86,73.20,-143342,-22798,-68061,872,345,-306,
18258,28.5,29.3,1016.85,73.25,-143342,-43251,-48448,940,283,-201,
18278,28.5,29.3,1016.84,73.36,-143342,-52220,-23432,957,238,-110,
18298,28.5,29.3,1016.83,73.47,-143342,-35297,-848,922,198,-34,
18318,28.5,29.4,1016.82,73.54,-143342,-6011,11270,941,149,33,
18338,28.5,29.3,1016.81,73.59,-143342,12761,21520,974,124,49,
18358,28.5,29.3,1016.81,73.61,-143342,10906,21402,1010,102,67,
18378,28.5,29.4,1016.81,73.63,-143342,4506,6177,1006,75,81,
18399,28.5,29.4,1016.80,73.67,-135760,-19556,-1478,1006,-8,144,
18419,28.5,29.3,1016.80,73.70,-125483,-19713,45985,1007,-7,156,
18438,28.5,29.5,1016.80,73.73,-110005,-109,70446,911,-1,154,
18458,28.5,29.4,1016.80,73.73,-83728,22553,35218,866,-25,147,
18477,28.5,29.5,1016.79,73.77,-72988,15290,-9712,893,-53,157,
18497,28.5,29.4,1016.79,73.76,-90886,-15881,-12845,969,-67,172,
18517,28.5,29.4,1016.80,73.71,-120658,-37703,8019,976,-49,173,
18537,28.5,29.5,1016.80,73.68,-139715,-31836,18484,991,-54,174,
18557,28.5,29.3,1016.81,73.63,-143342,-14988,23563,1070,-58,170,
18577,28.5,29.4,1016.81,73.59,-143342,-3408,22360,1023,-52,152,
18629,28.5,29.5,1016.83,73.43,-143342,-14975,-27221,936,-64,92,
18646,28.5,29.5,1016.85,73.31,-143342,-27400,4077,884,-53,24,
18665,28.5,29.3,1016.85,73.26,-143342,-47989,6125,893,-36,-14,
18685,28.5,29.4,1016.86,73.22,-143342,-51616,-20593,999,-25,-33,
18704,28.5,29.4,1016.86,73.22,-143342,-32860,-38115,1110,-22,-42,
18723,28.5,29.4,1016.86,73.15,-143342,-7813,-25930,1080,-11,-88,
18742,28.5,29.4,1016.87,73.07,-143342,-6418,-14258,1024,8,-167,
18761,28.5,29.4,1016.89,72.92,-143342,-31465,-30874,1013,13,-195,
18780,28.5,29.5,1016.91,72.72,-143342,-43693,-51170,1067,12,-187,
18799,28.5,29.5,1016.95,72.44,-143342,-33040,-46134,1050,10,-169,
18818,28.5,29.4,1016.98,72.13,-143342,-16498,-23165,1032,24,-171,
18837,28.5,29.3,1017.01,71.85,-143342,-9104,-3346,996,50,-187,
18857,28.5,29.4,1017.04,71.61,-143342,-13549,-5569,962,56,-171,
18877,28.5,29.4,1017.07,71.39,-143342,-16900,-22176,970,49,-150,
18896,28.5,29.5,1017.09,71.22,-143342,-19293,-34833,972,36,-112,
18916,28.5,29.4,1017.11,71.00,-143294,-13895,-27195,1006,35,-90,
18935,28.5,29.4,1017.13,70.84,-127951,476,-6426,997,40,-90,
18955,28.5,29.4,1017.15,70.69,-72384,8579,5236,987,49,-101,
18975,28.5,29.5,1017.16,70.58,-7175,-1885,12184,929,55,-106,
18995,28.5,29.4,1017.17,70.51,58607,-16038,13068,915,70,-112,
19015,28.5,29.4,1017.18,70.39,124083,-9196,1522,952,75,-115,
19035,28.5,29.3,1017.19,70.36,143303,8448,-5298,982,74,-138,
19055,28.5,29.3,1017.20,70.25,143342,25300,-118,963,62,-176,
19075,28.5,29.4,1017.22,70.11,143342,28096,19175,1008,41,-200,
19095,28.5,29.4,1017.23,69.95,143342,9393,50986,995,37,-224,
19114,28.5,29.4,1017.24,69.85,143342,-3206,59740,931,32,-230,
19135,28.5,29.5,1017.26,69.75,143342,3351,42026,944,13,-221,
19155,28.5,29.4,1017.26,69.76,143342,12731,24163,937,-15,-192,
19174,28.5,29.4,1017.25,69.83,143342,19591,20435,996,-56,-120,
19194,28.5,29.5,1017.23,69.95,143342,30725,26250,1023,-88,-70,
19214,28.5,29.4,1017.23,70.01,143342,32606,28940,1064,-112,-24,
19234,28.5,29.3,1017.21,70.12,143342,26009,33123,1004,-129,-6,
19254,28.5,29.4,1017.20,70.23,133630,19022,37025,971,-141,3,
19274,28.5,29.5,1017.19,70.28,68985,11300,32493,907,-147,16,
19294,28.5,29.4,1017.19,70.30,-10587,13685,16358,835,-140,7,
19314,28.5,29.5,1017.19,70.34,-79874,22124,-5608,850,-134,-8,
19335,28.5,29.5,1017.19,70.33,-143342,21590,-3368,979,-119,-79,
19355,28.5,29.6,1017.20,70.28,-143342,9800,6908,929,-101,-110,
19374,28.5,29.6,1017.21,70.17,-143342,-3005,5145,885,-82,-125,
19393,28.5,29.4,1017.22,70.07,-143342,-4851,-4007,851,-61,-143,
19413,28.5,29.4,1017.24,69.87,-143342,12223,-8308,951,-55,-146,
19433,28.5,29.5,1017.26,69.71,-143342,29041,7805,1027,-43,-163,
19453,28.5,29.5,1017.28,69.51,-143342,24285,26333,1076,-24,-167,
19473,28.5,29.5,1017.30,69.34,-143342,14525,32116,1091,-22,-148,
19493,28.5,29.4,1017.32,69.15,-136325,19796,29491,1076,-8,-162,
19513,28.5,29.6,1017.34,69.02,-86686,28004,18344,940,-3,-173,
19533,28.5,29.5,1017.35,68.89,-22640,28555,9651,941,-11,-159,
19553,28.5,29.4,1017.37,68.80,30975,25847,27925,1012,-17,-132,
19572,28.5,29.4,1017.38,68.66,78859,24451,53882,1081,-11,-128,
19593,28.5,29.4,1017.39,68.61,126511,16187,60803,1145,-4,-125,
19613,28.5,29.5,1017.40,68.54,143237,16918,54271,1073,0,-123,
19632,28.5,29.4,1017.39,68.59,143342,39160,35997,988,-2,-136,
19652,28.5,29.4,1017.38,68.64,143342,60908,16240,1027,-16,-137,
19672,28.5,29.3,1017.38,68.68,143342,58034,13658,980,-35,-132,
19692,28.5,29.5,1017.36,68.81,143342,50881,26796,1008,-52,-119,
19712,28.5,29.6,1017.35,68.97,143342,52605,40403,937,-68,-113,
19732,28.5,29.6,1017.33,69.07,143342,61096,35411,940,-84,-97,
19752,28.5,29.5,1017.32,69.20,143342,62094,7293,929,-101,-62,
19772,28.5,29.5,1017.31,69.29,143281,40683,-27776,1010,-124,2,
19793,28.5,29.6,1017.30,69.36,32388,39221,-21135,1113,-154,90,
19812,28.5,29.5,1017.29,69.44,-73110,52749,-6741,1055,-149,86,
19833,28.5,29.6,1017.29,69.45,-138569,59578,-9874,960,-136,71,
19852,28.5,29.6,1017.28,69.50,-143342,58646,-27798,873,-119,45,
19871,28.5,29.5,1017.29,69.49,-143342,44025,-52416,891,-99,7,
19891,28.5,29.5,1017.29,69.45,-143342,18427,-60606,1045,-78,-24,
19941,28.5,29.5,1017.33,69.13,-143342,6470,-30082,1161,-5,-117,
19951,28.5,29.5,1017.35,68.91,-143342,19779,-4484,1106,38,-195,
19971,28.5,29.5,1017.39,68.63,-143342,22120,18900,988,85,-279,
19991,28.5,29.4,1017.42,68.34,-143342,15426,1960,944,112,-329,
20011,28.5,29.5,1017.45,68.03,-143342,19175,-35091,982,114,-353,
20031,28.5,29.6,1017.49,67.75,-143342,10823,-37638,930,126,-377,
20051,28.5,29.5,1017.52,67.49,-143342,-23240,-13295,878,144,-371,
20071,28.5,29.5,1017.53,67.40,-143342,-51205,-406,957,160,-336,
20090,28.5,29.4,1017.54,67.32,-143342,-46366,8225,1009,148,-310,
20110,28.5,29.5,1017.55,67.21,-143342,-27584,23288,1027,150,-299,
20130,28.5,29.4,1017.56,67.13,-143342,-13601,21266,989,147,-298,
20150,28.5,29.4,1017.56,67.11,-143342,-5009,5158,977,136,-300,
20170,28.5,29.4,1017.57,67.00,-125514,-10670,1715,1003,127,-308,
20190,28.5,29.5,1017.58,66.97,-36347,-28468,10290,1047,119,-322,
20210,28.5,29.6,1017.58,66.91,60921,-29391,17084,1069,104,-326,
20230,28.5,29.4,1017.60,66.79,130134,-13160,21669,1050,78,-324,
20250,28.5,29.4,1017.61,66.66,143342,1225,26744,961,59,-314,
20270,28.5,29.4,1017.62,66.58,143342,5022,24285,896,11,-272,
20291,28.5,29.4,1017.63,66.49,143342,-2415,23913,929,-14,-231,
20310,28.5,29.5,1017.64,66.39,143342,-10180,31937,985,-33,-179,
20329,28.5,29.4,1017.66,66.26,140857,-8120,45088,1042,-41,-146,
20349,28.5,29.5,1017.67,66.18,116528,6339,41216,1005,-48,-133,
20369,28.5,29.4,1017.68,66.03,75298,17517,23856,1084,-76,-131,
20389,28.5,29.4,1017.70,65.90,15885,13256,19705,998,-96,-143,
20409,28.5,29.3,1017.72,65.74,-57172,7682,35192,941,-100,-158,
20429,28.5,29.4,1017.73,65.61,-125391,2686,45915,847,-84,-180,
20449,28.5,29.4,1017.74,65.51,-143329,323,38469,840,-64,-191,
20469,28.5,29.3,1017.75,65.50,-143342,7686,25186,933,-35,-205,
20489,28.5,29.4,1017.75,65.46,-143342,18357,20846,964,-2,-227,
20509,28.5,29.4,1017.75,65.47,-143342,20015,29806,950,25,-237,
20529,28.5,29.3,1017.75,65.49,-143342,4729,35441,909,49,-234,
20549,28.5,29.3,1017.75,65.48,-143342,-14214,28144,881,65,-211,
20568,28.5,29.4,1017.75,65.48,-143342,-17548,22723,907,82,-198,
20589,28.5,29.4,1017.75,65.45,-143342,-9498,31010,943,90,-192,
20608,28.5,29.4,1017.76,65.40,-139562,1776,39720,901,100,-178,
20628,28.5,29.3,1017.76,65.38,-87688,15601,38206,840,101,-163,
20648,28.5,29.2,1017.77,65.33,-1093,20956,38565,843,96,-159,
20668,28.5,29.3,1017.77,65.27,81130,10618,50233,846,98,-170,
20688,28.5,29.4,1017.78,65.18,137055,-3486,61289,829,104,-179,
20708,28.5,29.3,1017.80,65.07,143342,1474,65113,889,106,-177,
20728,28.5,29.3,1017.81,64.93,143342,24351,62571,991,100,-180,
20748,28.4,29.3,1017.83,64.79,143342,65393,36378,941,29,-212,
20769,28.4,29.3,1017.85,64.61,143342,62558,39716,972,-6,-211,
20788,28.4,29.3,1017.86,64.51,143342,52736,54026,933,-36,-193,
20807,28.4,29.3,1017.87,64.44,143342,40840,51808,913,-53,-152,
20828,28.4,29.3,1017.88,64.35,143342,38381,30121,979,-87,-77,
20847,28.4,29.2,1017.89,64.28,143342,54713,13776,973,-124,-10,
20867,28.4,29.3,1017.89,64.23,143106,65913,-2056,949,-142,22,
20887,28.4,29.4,1017.89,64.23,114358,54390,-21840,1050,-148,41,
20907,28.4,29.3,1017.89,64.21,28770,31801,-30454,1047,-152,77,
20927,28.4,29.4,1017.91,64.11,-66723,20400,-15579,1023,-153,109,
20947,28.4,29.3,1017.91,64.08,-135524,29894,3106,1011,-136,89,
20967,28.4,29.4,1017.92,63.97,-143342,41181,354,944,-112,54,
20987,28.4,29.3,1017.92,63.95,-143342,39930,-18095,957,-97,25,
21007,28.4,29.3,1017.94,63.84,-143342,37677,-34063,960,-99,34,
21027,28.4,29.3,1017.95,63.71,-143342,42831,-32344,965,-98,6,
21047,28.4,29.3,1017.97,63.57,-143342,35463,-16034,981,-85,-38,
21067,28.4,29.3,1017.98,63.48,-143342,21310,-704,955,-58,-78,
21086,28.4,29.3,1017.99,63.41,-143342,24828,10045,1024,-26,-126,
21106,28.4,29.3,1017.99,63.35,-143342,35240,9056,1023,0,-181,
21127,28.4,29.3,1018.00,63.29,-143342,36216,1863,1066,32,-243,
21146,28.4,29.4,1018.00,63.31,-143342,21595,8820,1043,70,-300,
21166,28.4,29.3,1017.99,63.40,-143342,2821,15920,996,107,-330,
21186,28.4,29.3,1017.97,63.53,-143342,-6063,12324,966,129,-328,
21207,28.4,29.2,1017.96,63.61,-143342,-17950,31342,978,140,-260,
21260,28.4,29.2,1017.95,63.72,-143097,-2738,41234,945,133,-180,
21266,28.4,29.4,1017.94,63.82,-109274,-8815,39335,999,127,-177,
21286,28.4,29.3,1017.94,63.84,-11729,-29802,44401,1044,124,-179,
21305,28.4,29.3,1017.93,63.88,86983,-31408,50662,1113,124,-175,
21325,28.5,29.2,1017.94,63.85,140179,-6475,53484,1034,123,-205,
21346,28.5,29.2,1017.94,63.79,143342,23209,47403,950,102,-249,
21365,28.5,29.2,1017.95,63.69,143342,26989,42249,895,75,-282,
21385,28.5,29.3,1017.96,63.60,143342,5993,53235,871,49,-279,
21405,28.5,29.2,1017.98,63.47,143342,-3753,71671,964,15,-253,
21425,28.5,29.3,1018.00,63.28,143342,11637,72786,978,-16,-223,
21445,28.5,29.4,1018.03,63.06,143342,39746,44533,991,-60,-187,
21465,28.5,29.2,1018.05,62.84,143342,54617,8316,1046,-117,-138,
21485,28.5,29.2,1018.08,62.62,143342,47862,8719,1006,-160,-86,
21505,28.5,29.4,1018.10,62.45,123939,38189,39856,968,-171,-60,
21525,28.5,29.3,1018.12,62.29,36671,37668,55575,915,-174,-41,
21544,28.5,29.2,1018.14,62.13,-63756,45635,36443,928,-179,-32,
21565,28.5,29.2,1018.15,62.02,-135266,56616,4103,940,-175,-46,
21584,28.5,29.3,1018.16,61.94,-143342,59482,-16476,949,-155,-87,
21604,28.5,29.3,1018.17,61.85,-143342,50155,-25536,997,-120,-151,
21624,28.5,29.3,1018.18,61.76,-143342,29023,-12521,1037,-76,-229,
21644,28.5,29.2,1018.18,61.70,-143342,5495,19508,1024,-8,-311,
21664,28.5,29.3,1018.18,61.73,-143342,-1382,40298,1002,65,-389,
21685,28.5,29.3,1018.17,61.79,-143342,28962,21083,972,162,-438,
21705,28.5,29.3,1018.17,61.86,-143342,27965,13278,942,170,-417,
21724,28.5,29.2,1018.16,61.91,-143342,9681,21214,975,154,-374,
21744,28.5,29.3,1018.16,61.94,-125601,-9716,48588,1038,151,-347,
21764,28.5,29.3,1018.16,61.90,-16878,-24535,76055,1074,143,-334,
21784,28.5,29.2,1018.16,61.87,106246,-17648,76037,1018,137,-322,
21804,28.5,29.3,1018.17,61.79,143198,12775,54534,981,117,-323,
21824,28.5,29.2,1018.18,61.69,143342,42035,43386,928,78,-335,
21843,28.5,29.4,1018.20,61.56,143342,50373,47420,979,35,-339,
21863,28.5,29.3,1018.22,61.40,143342,34396,63573,888,-12,-313,
21883,28.5,29.3,1018.23,61.29,143342,17657,64999,858,-51,-248,
21903,28.5,29.2,1018.25,61.13,143342,20943,45565,919,-82,-182,
21923,28.5,29.2,1018.26,61.01,143342,40110,22172,955,-111,-141,
21943,28.5,29.2,1018.28,60.91,143342,50172,1920,915,-138,-114,
21963,28.5,29.3,1018.29,60.78,134137,42647,-2380,927,-160,-76,
21983,28.5,29.2,1018.30,60.72,62059,32795,5678,912,-175,-30,
22003,28.5,29.2,1018.30,60.68,-39453,27895,13125,917,-173,-16,
22023,28.5,29.3,1018.32,60.56,-123996,29211,4265,894,-161,-22,
22043,28.5,29.2,1018.33,60.47,-143342,39073,-10478,900,-148,-36,
22062,28.5,29.3,1018.34,60.37,-143342,41370,-24329,942,-126,-37,
22082,28.5,29.3,1018.34,60.33,-143342,34566,-29526,1100,-115,-31,
22103,28.5,29.2,1018.36,60.20,-143342,31430,-13658,1088,-87,-67,
22122,28.5,29.2,1018.37,60.13,-143342,31259,19158,974,-40,-145,
22143,28.5,29.3,1018.37,60.07,-143342,-8076,-7170,948,62,-249,
22164,28.5,29.3,1018.37,60.07,-143342,11445,-32768,1044,106,-299,
22183,28.5,29.3,1018.37,60.05,-143342,23371,-9537,1045,181,-362,
22202,28.5,29.1,1018.38,59.96,-143342,-8723,10311,1002,211,-384,
22222,28.5,29.3,1018.39,59.88,-143342,-38587,-5411,1108,208,-325,
22242,28.5,29.2,1018.40,59.80,-143342,-31858,-21612,1173,183,-262,
22262,28.5,29.3,1018.42,59.67,-143342,-6273,-13107,1130,163,-246,
22282,28.5,29.3,1018.43,59.56,-143342,4663,6370,1074,149,-233,
22301,28.5,29.4,1018.45,59.40,-126350,-3688,28376,1066,147,-210,
22321,28.5,29.2,1018.46,59.32,-11576,-12044,31968,1089,141,-218,
22341,28.5,29.3,1018.47,59.24,114380,-11716,16432,1083,132,-250,
22361,28.5,29.2,1018.48,59.11,143338,-4309,7669,1133,125,-264,
22381,28.5,29.4,1018.49,59.07,143342,3491,21525,1204,125,-248,
22401,28.5,29.2,1018.49,59.03,143342,24206,45066,1205,115,-259,
22421,28.5,29.3,1018.50,58.96,143342,40617,44808,1122,92,-274,
22441,28.5,29.3,1018.51,58.87,143342,27671,34103,1066,46,-249,
22461,28.5,29.4,1018.52,58.79,143342,5849,43076,1090,20,-198,
22481,28.5,29.4,1018.53,58.72,143342,3657,43540,1110,14,-147,
22501,28.5,29.3,1018.53,58.67,143342,21485,8544,1080,-5,-90,
22553,28.5,29.3,1018.55,58.51,123637,42796,29400,1090,-63,-35,
22563,28.5,29.4,1018.56,58.41,82044,31136,21021,1036,-56,-42,
22582,28.5,29.4,1018.57,58.35,46278,23638,-9165,1146,-64,-9,
22602,28.5,29.4,1018.59,58.22,-6763,20951,-12184,1205,-74,4,
22621,28.5,29.3,1018.60,58.11,-72708,18331,3530,1164,-62,-22,
22641,28.5,29.4,1018.61,58.01,-125628,31539,9113,1099,-34,-59,
22660,28.5,29.5,1018.61,58.00,-142944,42875,4821,1117,-32,-97,
22680,28.5,29.3,1018.62,57.96,-143342,27566,1036,1099,-11,-125,
22700,28.5,29.4,1018.63,57.87,-143342,9178,-4904,1134,10,-157,
22719,28.5,29.3,1018.63,57.84,-143342,15439,-10001,1099,48,-192,
22740,28.5,29.3,1018.63,57.81,-143342,31377,-10753,1144,72,-204,
22759,28.5,29.4,1018.64,57.75,-133201,40053,6116,1148,66,-211,
22779,28.5,29.4,1018.65,57.70,-80906,29824,28332,1042,79,-207,
22799,28.5,29.5,1018.66,57.58,3154,14888,20391,1076,91,-198,
22819,28.5,29.3,1018.66,57.54,98822,14651,1745,1109,102,-208,
22839,28.5,29.4,1018.67,57.51,142345,39939,-8089,1205,104,-220,
22859,28.5,29.4,1018.67,57.50,143342,63406,4536,1170,85,-258,
22879,28.5,29.5,1018.68,57.43,143342,55588,27230,1036,78,-287,
22899,28.5,29.3,1018.69,57.31,143342,38338,27628,931,79,-311,
22919,28.5,29.4,1018.70,57.20,143342,22260,3368,871,50,-305,
22938,28.5,29.4,1018.71,57.14,143342,5280,-15658,990,16,-256,
22959,28.5,29.4,1018.71,57.14,143342,971,-17368,1071,-28,-161,
22979,28.5,29.4,1018.72,57.08,143342,22780,-2524,1125,-45,-124,
22998,28.5,29.3,1018.72,57.03,143342,27986,-8605,1013,-66,-94,
23018,28.5,29.3,1018.72,57.05,143342,-3784,-17530,1083,-98,-24,
23038,28.5,29.4,1018.72,57.05,143342,-25956,-1382,1058,-119,45,
23058,28.5,29.4,1018.72,57.02,143342,-13916,13755,1081,-129,96,
23078,28.5,29.3,1018.72,57.03,136189,-10443,-420,1036,-115,89,
23099,28.5,29.4,1018.73,56.97,49358,-29308,-34960,1188,-127,219,
23119,28.5,29.4,1018.73,56.96,-4204,-9476,-4611,1100,-113,203,
23138,28.5,29.5,1018.74,56.91,-34426,-9541,23773,1014,-78,160,
23158,28.5,29.3,1018.74,56.86,-27422,-30310,8290,947,-59,165,
23177,28.5,29.4,1018.75,56.79,-3793,-29837,-27951,983,-75,208,
23198,28.5,29.3,1018.75,56.77,12241,-14660,-38482,1084,-80,205,
23217,28.5,29.2,1018.76,56.72,25510,-14791,-11060,1119,-67,180,
23237,28.5,29.3,1018.77,56.67,48750,-19486,12573,1102,-54,164,
23257,28.5,29.2,1018.77,56.64,85666,-7945,10806,1044,-55,149,
23277,28.5,29.3,1018.77,56.60,125671,5468,6706,1021,-57,140,
23297,28.5,29.4,1018.77,56.59,142887,10600,11655,1001,-41,113,
23317,28.5,29.3,1018.77,56.58,143342,10386,3062,1002,-20,61,
23337,28.5,29.3,1018.78,56.53,143342,1933,-20111,1004,-24,45,
23357,28.5,29.2,1018.79,56.49,143342,-5464,-4305,1087,-30,41,
23377,28.5,29.4,1018.80,56.38,143342,16222,41444,1035,-14,15,
23397,28.5,29.3,1018.81,56.27,143342,45381,40101,980,1,-39,
23417,28.5,29.4,1018.82,56.17,143342,27483,-5718,1010,-8,-66,
23437,28.5,29.3,1018.84,56.02,143342,-11790,-26101,1065,-33,-16,
23456,28.5,29.4,1018.86,55.84,143342,-13982,-5836,1093,-60,21,
23476,28.5,29.3,1018.88,55.68,143342,21131,14323,1074,-80,21,
23496,28.5,29.3,1018.90,55.51,143342,45933,-1439,1015,-110,30,
23516,28.5,29.4,1018.92,55.32,138705,29798,-30073,1007,-150,69,
23536,28.5,29.3,1018.94,55.17,67458,-5674,-36207,1005,-167,133,
23557,28.5,29.3,1018.95,55.05,-137099,-26705,-22793,1131,-159,161,
23578,28.5,29.3,1018.97,54.89,-143342,10005,-27085,1109,-147,132,
23597,28.5,29.4,1018.98,54.81,-143342,42118,-30314,1039,-124,46,
23617,28.5,29.3,1018.98,54.76,-143342,29986,-36623,956,-76,-50,
23636,28.5,29.3,1018.98,54.80,-143342,-3193,-53130,1001,-18,-162,
23656,28.5,29.3,1018.98,54.78,-143342,-19818,-72506,1032,47,-281,
23676,28.5,29.3,1018.98,54.84,-143342,-20580,-76335,1059,97,-382,
23696,28.5,29.2,1018.97,54.85,-143342,-23905,-59902,1002,135,-453,
23715,28.5,29.3,1018.98,54.81,-143342,-26538,-35223,939,159,-468,
23736,28.5,29.6,1018.99,54.69,-143342,-25143,-15645,954,174,-441,
23755,28.5,29.5,1019.00,54.60,-143342,-17482,-18081,976,171,-374,
23775,28.5,29.4,1019.02,54.49,-143342,3390,-25821,932,145,-302,
23795,28.5,29.4,1019.02,54.45,-143342,11659,-26442,934,120,-247,
23815,28.5,29.3,1019.04,54.30,-143342,1111,-27584,895,85,-206,
23870,28.5,29.4,1019.05,54.18,-122653,-35385,4165,955,22,-120,
23881,28.5,29.5,1019.06,54.08,-71640,-10801,14083,961,27,-133,
23901,28.5,29.3,1019.07,54.03,-24185,19683,1128,943,3,-152,
23920,28.5,29.5,1019.07,53.98,-875,15981,-11768,857,-30,-165,
23939,28.5,29.3,1019.08,53.92,-4125,-15194,-11208,870,-43,-145,
23958,28.5,29.3,1019.09,53.83,-20628,-30161,-6129,895,-58,-118,
23977,28.5,29.5,1019.10,53.79,-45622,-23966,4392,929,-54,-115,
23996,28.5,29.4,1019.10,53.73,-67615,-8198,2533,955,-53,-116,
24015,28.5,29.4,1019.11,53.66,-88755,6304,-6448,954,-55,-122,
24035,28.5,29.4,1019.12,53.62,-113509,949,-10158,982,-53,-124,
24055,28.5,29.4,1019.13,53.52,-136066,-17683,-12525,948,-51,-118,
24074,28.5,29.4,1019.14,53.39,-143307,-29684,-2581,927,-33,-125,
24094,28.5,29.3,1019.15,53.29,-143342,-29128,12066,941,-32,-137,
24114,28.5,29.4,1019.17,53.20,-143342,-25221,19416,935,-24,-153,
24134,28.5,29.5,1019.18,53.07,-143342,-22841,13203,956,-14,-160,
24153,28.5,29.3,1019.19,52.95,-143342,-18086,3320,1013,-6,-165,
24173,28.5,29.4,1019.21,52.82,-143342,-15260,-651,995,0,-186,
24193,28.5,29.4,1019.22,52.68,-143342,-16292,-2835,948,0,-205,
24213,28.5,29.4,1019.24,52.57,-143342,-27689,-4375,914,0,-222,
24233,28.5,29.3,1019.25,52.46,-143342,-47363,2113,930,10,-197,
24253,28.5,29.3,1019.26,52.39,-142550,-50155,16082,924,25,-152,
24273,28.5,29.4,1019.27,52.27,-118120,-23191,11961,972,36,-120,
24293,28.5,29.4,1019.28,52.21,-63336,9611,-2091,942,38,-111,
24312,28.5,29.2,1019.29,52.14,-7695,15010,-2756,952,34,-101,
24333,28.5,29.2,1019.30,52.02,46195,-10316,8798,941,41,-79,
24353,28.5,29.3,1019.32,51.90,102948,-33193,12906,976,51,-36,
24372,28.5,29.4,1019.33,51.81,140201,-23826,6173,986,53,-5,
24392,28.5,29.4,1019.34,51.73,143342,4305,7678,1025,48,-14,
24412,28.5,29.3,1019.35,51.62,143342,21008,19473,957,49,-33,
24432,28.5,29.3,1019.35,51.56,143342,22723,20531,897,52,-57,
24452,28.5,29.3,1019.37,51.47,143342,9546,5556,884,48,-59,
24472,28.5,29.4,1019.38,51.36,143342,-5836,-3368,930,29,-45,
24493,28.5,29.3,1019.38,51.35,143342,7083,6164,973,-14,-15,
24513,28.5,29.2,1019.38,51.31,143342,17644,-13553,977,-30,-4,
24533,28.5,29.4,1019.39,51.26,143342,12149,-25095,949,-54,27,
24552,28.5,29.5,1019.40,51.20,143342,12775,-23323,942,-79,51,
24572,28.5,29.4,1019.40,51.19,143342,16585,-23681,950,-104,70,
24592,28.5,29.6,1019.41,51.11,141461,2594,-22168,967,-118,86,
24611,28.5,29.3,1019.41,51.08,105805,-15706,-24587,996,-123,103,
24631,28.5,29.4,1019.41,51.04,42958,-19228,-35253,998,-124,117,
24651,28.5,29.4,1019.41,51.05,-21844,-9244,-44226,1034,-121,121,
24671,28.5,29.5,1019.42,51.02,-92395,367,-38255,1038,-128,105,
24691,28.5,29.4,1019.42,50.96,-139702,-1658,-30292,1050,-116,73,
24711,28.5,29.4,1019.44,50.86,-143342,-11270,-35035,1066,-97,39,
24731,28.5,29.5,1019.44,50.80,-143342,-24775,-38517,1061,-80,17,
24751,28.5,29.4,1019.45,50.70,-143342,-28266,-33595,1011,-57,-12,
24771,28.5,29.4,1019.46,50.62,-143342,-14787,-28695,1007,-19,-60,
24791,28.5,29.4,1019.47,50.57,-143342,5674,-30078,1041,24,-118,
24811,28.5,29.4,1019.48,50.51,-143342,12639,-31539,1036,58,-172,
24830,28.5,29.3,1019.48,50.44,-143342,-840,-37585,1050,83,-189,
24850,28.5,29.2,1019.49,50.35,-143342,-14358,-46475,1068,89,-191,
24871,28.5,29.5,1019.50,50.26,-143342,-12455,-40928,1055,102,-176,
24890,28.5,29.4,1019.51,50.18,-143342,-993,-21096,1134,117,-145,
24910,28.5,29.5,1019.53,50.07,-133656,9436,-743,1166,127,-124,
24930,28.5,29.4,1019.53,50.04,-40223,23156,6426,1168,140,-104,
24950,28.5,29.4,1019.54,49.98,93183,26713,-5140,1129,144,-104,
24971,28.5,29.4,1019.54,49.94,143342,4182,-8023,1030,202,-118,
24991,28.5,29.4,1019.55,49.83,143342,15548,21533,1070,240,-195,
25011,28.5,29.4,1019.56,49.78,143342,21730,49590,1033,284,-291,
25030,28.5,29.4,1019.57,49.67,143342,25090,52084,1051,302,-388,
25050,28.5,29.3,1019.58,49.62,143342,17364,42682,1079,299,-472,
25070,28.5,29.5,1019.59,49.50,143342,5481,38775,1087,257,-509,
25089,28.5,29.4,1019.59,49.51,143342,10504,45915,1104,203,-476,
25110,28.5,29.3,1019.58,49.64,143342,31858,54355,1066,130,-385,
25129,28.5,29.5,1019.56,49.78,143342,40425,47906,973,38,-219,
25181,28.5,29.4,1019.53,50.01,143342,-4195,10508,1096,-184,242,
25200,28.5,29.5,1019.53,50.03,138753,-18895,8001,1143,-206,267,
25219,28.5,29.3,1019.53,50.01,41396,-18265,-1006,1108,-220,274,
25238,28.5,29.4,1019.54,49.98,-111514,-7411,-16966,981,-223,224,
25257,28.5,29.4,1019.54,49.96,-143342,2104,-28625,931,-189,137,
25277,28.5,29.4,1019.54,49.94,-143342,4410,-33061,960,-123,11,
25295,28.5,29.4,1019.54,49.98,-143342,-11033,-41103,874,-47,-116,
25315,28.5,29.4,1019.54,49.98,-143342,-27829,-67895,762,3,-189,
25334,28.5,29.4,1019.54,49.96,-143342,-31841,-96534,757,41,-253,
25353,28.5,29.4,1019.54,49.91,-143342,-28100,-102659,924,68,-295,
25372,28.5,29.4,1019.56,49.77,-143342,-17036,-76969,1074,100,-328,
25391,28.5,29.4,1019.58,49.61,-143342,-2782,-34733,1193,143,-400,
25410,28.5,29.4,1019.60,49.40,-143342,5035,-13965,1136,178,-468,
25429,28.5,29.4,1019.63,49.19,-143342,8487,-20203,925,194,-496,
25449,28.5,29.4,1019.65,48.99,-143342,21039,-34527,917,203,-497,
25469,28.5,29.3,1019.67,48.80,-143342,48706,-39366,1188,174,-472,
25488,28.5,29.3,1019.69,48.64,-143342,47337,5271,1406,166,-442,
25507,28.5,29.5,1019.71,48.49,-118597,-8995,53440,1400,179,-395,
25528,28.5,29.2,1019.72,48.35,35490,-60501,46388,1353,167,-323,
25547,28.5,29.3,1019.75,48.14,138556,-52246,12740,1220,147,-252,
25567,28.5,29.4,1019.76,48.01,143342,-1176,6685,1181,94,-184,
25587,28.5,29.5,1019.77,47.93,143342,34107,33394,1043,75,-147,
25607,28.5,29.3,1019.78,47.87,143342,15242,57785,1125,47,-74,
25627,28.5,29.5,1019.79,47.78,143342,-44082,92378,1167,49,-29,
25647,28.5,29.5,1019.79,47.77,143342,-66850,93572,1181,52,6,
25667,28.5,29.3,1019.79,47.76,143342,-53891,46410,1162,29,55,
25687,28.5,29.4,1019.79,47.81,143342,-15526,17451,1156,24,85,
25707,28.5,29.5,1019.78,47.86,143342,44896,34610,1054,18,82,
25726,28.5,29.4,1019.78,47.92,143342,91848,60436,886,21,35,
25747,28.5,29.4,1019.77,47.97,143342,89180,71102,830,30,10,
25767,28.5,29.4,1019.76,48.07,143342,53226,77660,925,58,0,
25786,28.5,29.5,1019.75,48.15,143342,21665,69510,1038,102,0,
25806,28.5,29.4,1019.75,48.15,143342,8793,29233,1078,142,0,
25826,28.5,29.5,1019.75,48.18,143342,16957,-15553,1003,180,-37,
25846,28.5,29.5,1019.75,48.14,143342,45937,-42590,899,197,-88,
25866,28.5,29.5,1019.76,48.08,143342,67672,-58384,846,189,-159,
25886,28.5,29.4,1019.77,47.99,143342,40740,-33665,746,190,-189,
25907,28.5,29.6,1019.79,47.76,143342,-2738,97741,1221,290,-215,
25927,28.5,29.3,1019.82,47.52,143342,-24644,78190,1221,336,-228,
25947,28.5,29.4,1019.84,47.34,143342,-62063,13076,825,360,-211,
25966,28.5,29.5,1019.87,47.13,143342,-64456,13960,966,385,-193,
25986,28.5,29.3,1019.88,46.98,143342,-17513,84577,1328,453,-269,
26006,28.5,29.4,1019.90,46.84,143342,45745,112660,943,519,-435,
26025,28.5,29.4,1019.91,46.78,143342,73924,78973,947,556,-582,
26045,28.5,29.4,1019.92,46.63,143342,69606,82840,1222,541,-667,
26065,28.5,29.4,1019.92,46.65,143342,65476,100226,1326,448,-659,
26085,28.5,29.4,1019.91,46.79,143342,46777,109886,1944,262,-442,
26105,28.5,29.4,1019.91,46.75,143342,55768,139383,1427,162,-297,
26125,28.5,29.5,1019.90,46.81,143342,94395,118610,798,113,-265,
26145,28.5,29.3,1019.90,46.87,143342,-29981,-14612,972,-19,99,
26165,28.5,29.4,1019.90,46.88,143342,-74970,-9655,1090,-74,466,
26184,28.5,29.5,1019.89,46.93,143342,80053,53073,1212,-35,318,
26205,28.5,29.5,1019.90,46.88,143342,133078,74742,1374,21,131,
26224,28.5,29.4,1019.90,46.87,143342,68578,81357,1341,96,77,
26244,28.5,29.4,1019.90,46.84,143342,-546,84026,1431,168,39,
26264,28.5,29.5,1019.91,46.79,143342,-28590,86821,1375,227,-55,
26284,28.5,29.6,1019.93,46.62,143342,16655,68516,1273,291,-172,
26304,28.5,29.3,1019.94,46.49,143342,94618,19302,1021,345,-319,
26324,28.5,29.4,1019.96,46.35,143342,118855,-9143,786,400,-475,
26344,28.5,29.3,1019.98,46.16,143342,96398,30870,909,431,-602,
26363,28.5,29.4,1019.99,46.02,143342,89285,102414,981,431,-633,
26383,28.5,29.5,1020.02,45.80,143342,110206,129395,876,368,-572,
26404,28.5,29.3,1020.03,45.69,143342,20002,53283,1190,133,-304,
26424,28.5,29.4,1020.05,45.58,143342,-88983,24801,1090,-16,-41,
26476,28.5,29.4,1020.09,45.22,143342,24176,-28726,1118,-226,365,
26483,28.5,29.3,1020.10,45.09,103600,132160,-70682,1147,-275,314,
26503,28.5,29.5,1020.12,44.97,-78470,105345,-61341,1043,-260,217,
26522,28.5,29.4,1020.13,44.87,-143193,15771,-16970,836,-199,94,
26543,28.5,29.4,1020.14,44.77,-143342,-51813,-10250,950,-73,-72,
26562,28.5,29.4,1020.14,44.77,-143342,-69059,-63840,970,80,-226,
26582,28.5,29.4,1020.14,44.75,-143342,-5460,-80202,1093,201,-395,
26602,28.5,29.4,1020.14,44.73,-143342,80976,-7892,1079,316,-579,
26622,28.5,29.4,1020.14,44.72,-143342,91231,48488,1151,368,-651,
26642,28.5,29.3,1020.15,44.67,-143342,21227,-12648,821,350,-596,
26662,28.5,29.3,1020.15,44.67,-143342,-43443,-113903,815,290,-372,
26682,28.5,29.4,1020.16,44.62,-137309,-22478,-76370,1001,240,-198,
26702,28.5,29.3,1020.16,44.59,-13190,44117,59228,1156,259,-187,
26722,28.5,29.3,1020.16,44.56,132269,79708,133275,1069,295,-271,
26741,28.5,29.3,1020.17,44.49,143342,63997,124145,997,346,-381,
26762,28.5,29.4,1020.18,44.42,143342,21441,66395,1036,420,-462,
26781,28.5,29.3,1020.19,44.37,143342,-17863,-4147,1057,483,-572,
26801,28.5,29.2,1020.19,44.32,143342,-17583,-10364,1145,519,-632,
26821,28.5,29.5,1020.20,44.25,143342,45228,21363,1100,512,-656,
26841,28.5,29.4,1020.20,44.24,143342,96486,25335,922,492,-683,
26861,28.5,29.4,1020.18,44.37,143342,56783,21818,896,432,-682,
26882,28.5,29.4,1020.18,44.45,143342,-22093,139636,1355,242,-383,
26902,28.5,29.5,1020.15,44.63,143342,-18296,135765,1270,203,-333,
26921,28.5,29.4,1020.14,44.80,143342,-44480,80290,1255,130,-246,
26941,28.5,29.2,1020.12,44.92,143342,-57531,50706,1272,20,-78,
26960,28.5,29.5,1020.11,45.01,143342,5648,69746,1296,-62,30,
26980,28.5,29.4,1020.11,45.03,143342,87115,84914,1066,-123,-22,
27000,28.5,29.4,1020.11,45.03,143342,90615,75617,919,-153,-85,
27020,28.5,29.3,1020.11,45.00,141658,12796,53410,766,-179,-51,
27040,28.5,29.3,1020.12,44.98,84730,-67484,34671,758,-150,0,
27060,28.5,29.3,1020.12,44.91,-18160,-88169,3819,908,-117,47,
27080,28.5,29.3,1020.12,44.91,-99526,-56971,-19495,1171,-94,78,
27100,28.5,29.3,1020.13,44.88,-140809,-5044,-23668,1305,-81,78,
27120,28.5,29.3,1020.13,44.85,-143342,19184,1697,1436,-85,65,
27140,28.5,29.4,1020.13,44.88,-143342,6116,14048,905,-103,42,
27160,28.5,29.4,1020.12,44.92,-143342,-5578,4563,506,-91,-18,
27179,28.5,29.4,1020.12,44.91,-143342,-49455,-18803,629,-58,-110,
27199,28.5,29.3,1020.12,44.92,-143342,-100743,-76186,1004,-16,-177,
27219,28.5,29.4,1020.13,44.89,-143342,-69501,-135992,1118,16,-242,
27239,28.5,29.4,1020.13,44.84,-143342,-5442,-113636,1418,73,-381,
27259,28.5,29.3,1020.13,44.82,-143342,-5407,-23502,1282,181,-533,
27279,28.5,29.3,1020.15,44.68,-143342,-52911,3136,1056,257,-588,
27299,28.5,29.4,1020.17,44.53,-143342,-49888,-64006,1145,241,-488,
27319,28.5,29.3,1020.19,44.33,-143342,30086,-98398,1060,174,-389,
27340,28.5,29.4,1020.21,44.12,-143342,27833,-4375,945,115,-260,
27359,28.5,29.4,1020.24,43.93,-143342,-36723,18751,1042,101,-195,
27380,28.5,29.4,1020.26,43.75,-143045,-62514,-1666,1147,77,-131,
27399,28.5,29.2,1020.28,43.57,-116396,-40950,-26831,1062,50,-98,
27418,28.5,29.4,1020.29,43.45,-53777,14888,-18016,1018,31,-103,
27439,28.5,29.4,1020.31,43.33,-2926,69186,15408,987,13,-140,
27458,28.5,29.4,1020.32,43.24,40626,63310,41623,937,23,-199,
27478,28.5,29.4,1020.32,43.18,94482,8483,24447,809,18,-225,
27498,28.5,29.3,1020.33,43.14,136705,-44782,-2931,912,1,-198,
27518,28.5,29.3,1020.34,43.04,143342,-38018,7774,1094,-3,-141,
27538,28.5,29.3,1020.34,43.01,143342,15028,37323,1191,-3,-123,
27558,28.5,29.4,1020.35,42.95,143342,47897,47425,1081,-4,-128,
27578,28.5,29.4,1020.35,42.98,143342,44485,35988,994,-12,-134,
27598,28.5,29.3,1020.35,42.96,143342,29623,40245,1009,-27,-122,
27618,28.5,29.4,1020.35,42.96,143342,4703,63826,1015,-22,-108,
27637,28.5,29.5,1020.35,42.93,143298,-13028,65594,951,-28,-66,
27657,28.5,29.4,1020.35,42.91,138884,-1028,48842,1070,-28,-27,
27677,28.5,29.3,1020.36,42.90,120246,32628,42441,1145,-37,-18,
27697,28.5,29.5,1020.36,42.87,93165,47276,62741,1334,-42,-32,
27717,28.5,29.4,1020.36,42.88,68105,12499,104234,1353,-29,-43,
27769,28.5,29.5,1020.35,42.91,142511,38202,34986,1553,-10,-47,
27780,28.5,29.5,1020.35,42.97,143342,59049,33814,1219,6,-97,
27798,28.5,29.4,1020.33,43.09,143342,53287,85246,956,76,-178,
27818,28.5,29.4,1020.31,43.25,143342,45023,119490,834,135,-248,
27837,28.5,29.5,1020.30,43.41,143342,30016,90663,843,167,-264,
27857,28.5,29.4,1020.29,43.46,143342,32143,38705,915,173,-233,
27877,28.5,29.5,1020.28,43.54,143342,56201,5236,957,172,-205,
27896,28.5,29.4,1020.27,43.60,143342,53261,-21748,1087,154,-122,
27916,28.5,29.5,1020.27,43.67,143342,29605,-13256,1184,139,-44,
27936,28.5,29.4,1020.26,43.68,143342,40390,12569,965,126,-12,
27956,28.5,29.4,1020.26,43.69,143342,52745,13816,674,130,15,
27976,28.5,29.5,1020.27,43.64,143342,32528,10605,631,154,44,
27995,28.5,29.4,1020.28,43.59,143342,-8111,15868,730,197,81,
28016,28.5,29.4,1020.28,43.53,143342,-44996,22811,835,259,101,
28035,28.5,29.3,1020.29,43.45,143342,-49612,26801,920,377,35,
28055,28.5,29.4,1020.30,43.33,143342,-18388,29925,917,520,-151,
28075,28.5,29.5,1020.33,43.10,143342,18799,50133,882,654,-412,
28095,28.5,29.4,1020.36,42.90,143342,30279,90448,1023,755,-677,
28115,28.5,29.4,1020.38,42.70,143342,43413,133761,1070,782,-868,
28135,28.5,29.5,1020.39,42.56,143342,70940,143307,1067,711,-947,
28155,28.5,29.3,1020.39,42.63,143342,75180,143342,1040,546,-804,
28175,28.5,29.3,1020.36,42.88,143342,47438,142034,995,397,-533,
28195,28.5,29.5,1020.34,43.05,143342,15290,119249,924,257,-227,
28215,28.5,29.5,1020.34,43.05,143342,-4501,70818,888,166,71,
28235,28.5,29.5,1020.33,43.08,143342,1575,17438,1004,85,319,
28254,28.5,29.6,1020.33,43.11,143342,38478,-7853,892,63,406,
28274,28.5,29.5,1020.33,43.10,143342,70511,-19591,809,55,389,
28294,28.5,29.4,1020.33,43.10,143342,51813,-14402,907,83,357,
28316,28.5,29.3,1020.33,43.09,143342,-20396,32606,1062,192,280,
28335,28.5,29.3,1020.34,43.03,143342,-16948,36907,1015,286,171,
28354,28.5,29.3,1020.34,43.06,143342,12512,9992,841,402,-36,
28374,28.5,29.4,1020.35,42.96,143342,22596,-29220,760,502,-271,
28394,28.5,29.4,1020.37,42.80,143342,3360,-4860,870,579,-475,
28414,28.5,29.5,1020.39,42.60,143342,12201,85378,1054,638,-632,
28433,28.5,29.3,1020.41,42.38,143342,47158,139422,1108,650,-770,
28454,28.5,29.3,1020.44,42.15,143342,47398,137462,932,569,-735,
28473,28.5,29.4,1020.46,42.01,143342,19950,119660,869,438,-543,
28493,28.5,29.5,1020.46,41.98,143342,-240,115661,969,323,-316,
28513,28.5,29.5,1020.45,42.12,143342,-1588,111094,942,245,-118,
28533,28.5,29.5,1020.43,42.27,143342,10775,76623,781,196,32,
28553,28.5,29.6,1020.41,42.45,143342,16835,24723,789,192,101,
28573,28.5,29.5,1020.40,42.48,143342,7516,-12359,887,205,113,
28593,28.5,29.4,1020.41,42.44,143342,6260,-7354,980,203,118,
28613,28.5,29.5,1020.41,42.45,143342,43150,19801,875,214,74,
28633,28.5,29.5,1020.41,42.44,143342,74261,34383,854,247,-5,
28652,28.5,29.6,1020.41,42.42,143342,52806,46633,867,294,-93,
28673,28.5,29.4,1020.41,42.42,143342,-2117,51148,859,351,-191,
28692,28.5,29.4,1020.41,42.39,143342,-52500,55370,862,398,-265,
28712,28.5,29.5,1020.43,42.26,143342,-58148,75656,821,465,-363,
28732,28.5,29.4,1020.44,42.13,143342,-26127,84109,956,510,-443,
28752,28.5,29.4,1020.46,41.95,143342,-4060,71421,970,513,-486,
28773,28.5,29.4,1020.49,41.70,143342,21498,99426,943,372,-381,
28794,28.5,29.4,1020.53,41.40,143342,73950,105940,954,266,-314,
28813,28.5,29.2,1020.55,41.21,143342,75136,72340,913,187,-208,
28832,28.5,29.4,1020.56,41.15,143342,36855,46427,1015,126,-86,
28852,28.5,29.4,1020.55,41.21,143342,2314,54057,1139,71,44,
28872,28.6,29.4,1020.53,41.38,143342,-682,64846,1069,46,124,
28891,28.6,29.5,1020.52,41.51,143342,22413,27120,938,23,167,
28912,28.6,29.3,1020.50,41.69,143342,26796,-28052,858,-10,206,
28931,28.6,29.5,1020.48,41.84,143342,9905,-39847,896,-33,258,
28951,28.6,29.5,1020.46,41.96,143342,118,-8588,937,-56,277,
28971,28.6,29.4,1020.46,42.01,143342,4261,30660,1015,-56,264,
28991,28.6,29.4,1020.45,42.07,143342,3093,24937,1041,-45,271,
29011,28.6,29.5,1020.45,42.08,143342,-11042,-15653,1131,-27,297,
29031,28.6,29.5,1020.45,42.05,143342,-18935,-50973,1181,-20,339,
29083,28.6,29.4,1020.46,41.97,110945,18016,21787,903,-12,379,
29098,28.6,29.6,1020.47,41.87,94285,-7726,33823,885,6,373,
29117,28.6,29.6,1020.48,41.80,100117,-49210,5101,907,18,376,
29136,28.6,29.5,1020.49,41.73,113010,-76046,-31373,1119,5,407,
29155,28.6,29.5,1020.50,41.61,107546,-50675,-27448,1320,-4,403,
29174,28.6,29.6,1020.52,41.46,89035,7210,11414,1210,2,371,
29193,28.6,29.6,1020.54,41.32,76663,29522,46974,1104,17,334,
29212,28.6,29.6,1020.55,41.22,86362,896,48741,1082,35,317,
29232,28.6,29.5,1020.57,41.07,115027,-25567,23791,987,39,318,
29250,28.6,29.5,1020.57,41.00,139811,-34925,-4462,969,52,317,
29271,28.6,29.5,1020.58,40.96,143342,-34195,-2178,1094,80,320,
29291,28.6,29.7,1020.58,40.92,143342,-9191,23856,1142,114,293,
29309,28.6,29.4,1020.58,40.91,143342,25375,44773,1136,157,209,
29329,28.6,29.5,1020.58,40.91,143342,24368,62221,1137,200,116,
29349,28.6,29.6,1020.58,40.93,143342,-9366,54586,1225,262,18,
29369,28.6,29.6,1020.58,40.91,143342,-19853,44148,1347,345,-124,
29389,28.6,29.5,1020.59,40.88,143342,18248,50229,1058,432,-317,
29409,28.6,29.5,1020.59,40.85,143342,63310,49756,947,466,-473,
29429,28.6,29.4,1020.60,40.77,143342,79008,61884,1043,456,-507,
29449,28.6,29.5,1020.61,40.67,143342,91525,77826,977,407,-487,
29469,28.6,29.5,1020.64,40.44,143342,84468,87832,919,327,-402,
29489,28.6,29.4,1020.66,40.23,143342,54740,86310,917,260,-290,
29509,28.6,29.5,1020.69,39.97,143342,18151,48873,907,187,-175,
29528,28.6,29.4,1020.72,39.76,143342,-15566,-9931,941,105,-63,
29549,28.6,29.5,1020.74,39.58,143342,-39418,-52828,1121,14,83,
29568,28.6,29.5,1020.76,39.43,143342,-39366,-57964,1190,-64,242,
29588,28.6,29.5,1020.77,39.33,143342,12897,-26827,1103,-109,319,
29608,28.6,29.4,1020.77,39.30,143342,66766,-10793,942,-137,317,
29628,28.6,29.5,1020.77,39.31,138805,41251,-19263,801,-178,335,
29648,28.6,29.5,1020.77,39.28,58380,-34409,-22133,763,-183,347,
29668,28.6,29.3,1020.78,39.19,-75228,-93734,-41711,926,-166,362,
29688,28.6,29.5,1020.79,39.13,-140568,-98805,-83623,1070,-148,360,
29708,28.6,29.4,1020.81,38.99,-143342,-36855,-91918,1190,-133,322,
29729,28.6,29.5,1020.82,38.89,-143342,40963,-31793,991,-15,44,
29749,28.6,29.4,1020.83,38.80,-143342,-2778,-55195,895,69,-86,
29768,28.6,29.4,1020.84,38.72,-143342,-28923,-111829,941,137,-162,
29788,28.6,29.4,1020.85,38.62,-143342,-4825,-128353,1006,208,-237,
29807,28.6,29.5,1020.85,38.65,-143342,27636,-88624,993,258,-314,
29827,28.6,29.4,1020.84,38.69,-143342,18186,-36023,918,304,-319,
29847,28.6,29.4,1020.84,38.75,-143342,-7656,-20811,927,294,-238,
29867,28.6,29.4,1020.82,38.86,-143342,4466,-42411,997,263,-103,
29887,28.6,29.4,1020.82,38.90,-143342,43093,-46033,1062,215,6,
29907,28.6,29.4,1020.81,38.99,-143342,49507,-13125,1027,172,55,
29927,28.6,29.4,1020.80,39.07,-143211,22933,15802,993,146,133,
29947,28.6,29.2,1020.79,39.14,-113421,7630,23310,944,126,183,
29966,28.6,29.3,1020.79,39.17,-18361,11891,11825,901,111,221,
29986,28.6,29.4,1020.78,39.20,73880,28647,-1715,938,103,240,
30006,28.6,29.4,1020.78,39.23,135537,42389,-2152,935,103,235,
30026,28.6,29.4,1020.78,39.21,143342,44270,13886,943,116,248,
30046,28.6,29.4,1020.78,39.18,143342,36736,37476,989,141,222,
30066,28.6,29.5,1020.79,39.14,143342,26954,41335,936,174,181,
30086,28.6,29.3,1020.80,39.08,143342,28428,25038,882,219,114,
30106,28.6,29.3,1020.81,38.95,143342,34873,-2152,886,260,36,
30126,28.6,29.4,1020.82,38.84,143342,43264,-12670,918,297,-44,
30146,28.6,29.4,1020.84,38.69,143342,60213,10272,883,338,-155,
30165,28.6,29.3,1020.86,38.56,143342,70542,33429,843,371,-278,
30185,28.6,29.4,1020.87,38.43,143342,64820,33792,849,384,-381,
30206,28.6,29.3,1020.88,38.33,143342,17276,50986,906,332,-429,
30227,28.6,29.3,1020.89,38.31,143342,-6991,79808,897,309,-407,
30246,28.6,29.4,1020.88,38.32,143342,-28275,74191,884,266,-328,
30265,28.6,29.3,1020.88,38.38,143342,-32825,50868,867,210,-205,
30285,28.6,29.5,1020.86,38.50,143342,-28013,35455,870,161,-75,
30305,28.6,29.5,1020.84,38.68,143342,-18195,41125,806,125,-4,
30325,28.6,29.5,1020.83,38.75,143342,-3171,46659,955,101,45,
30345,28.6,29.4,1020.83,38.80,143342,-1273,51686,1036,82,94,
30397,28.6,29.4,1020.82,38.84,143342,44183,22531,776,70,59,
30416,28.6,29.3,1020.82,38.89,143342,5709,18440,854,57,99,
30435,28.6,29.5,1020.82,38.89,143342,-11593,40486,851,65,124,
30454,28.6,29.4,1020.82,38.89,143342,-4445,35214,837,88,105,
30473,28.6,29.4,1020.82,38.90,143342,2791,-1246,904,96,99,
30493,28.6,29.4,1020.82,38.85,143342,4746,-27755,927,92,99,
30511,28.6,29.4,1020.83,38.81,143342,-713,-18729,970,97,123,
30531,28.6,29.4,1020.84,38.73,143342,1636,18646,866,112,134,
30550,28.6,29.3,1020.85,38.64,143342,19376,48860,763,152,81,
30569,28.6,29.3,1020.86,38.55,143342,12604,59736,712,180,55,
30588,28.6,29.3,1020.87,38.42,143342,-15868,63883,725,205,49,
30607,28.6,29.3,1020.89,38.30,143342,-42424,66701,867,239,31,
30626,28.6,29.3,1020.90,38.16,143342,-45294,76619,962,283,-38,
30645,28.6,29.4,1020.92,38.03,143342,-13842,73412,956,322,-116,
30664,28.6,29.3,1020.94,37.87,143342,20720,60908,996,357,-202,
30684,28.6,29.3,1020.96,37.68,143342,48545,64015,958,393,-312,
30704,28.6,29.3,1020.98,37.49,143342,81523,54862,852,413,-454,
30724,28.6,29.3,1021.00,37.33,143342,92548,33827,883,365,-532,
30743,28.6,29.4,1021.01,37.22,143342,83037,68171,938,277,-491,
30763,28.6,29.3,1021.00,37.31,143342,86060,120106,990,204,-382,
30783,28.6,29.4,1020.98,37.45,143342,70371,102309,943,125,-222,
30803,28.6,29.4,1020.96,37.63,143342,21196,45784,955,52,-47,
30822,28.6,29.4,1020.95,37.72,143342,-25414,23760,1073,-2,160,
30842,28.6,29.3,1020.95,37.73,143342,-18060,26158,1145,-23,280,
30863,28.6,29.5,1020.95,37.79,143342,27221,988,1137,-20,299,
30882,28.6,29.4,1020.95,37.79,143342,63726,-30751,1257,-36,304,
30902,28.6,29.5,1020.95,37.79,143342,52535,-15216,1216,-46,305,
30922,28.6,29.4,1020.94,37.80,143342,12390,22741,1413,-24,312,
30942,28.6,29.4,1020.94,37.83,143342,3403,31793,1303,13,291,
30962,28.6,29.4,1020.94,37.88,143342,48155,2419,1053,44,221,
30982,28.6,29.6,1020.94,37.86,143342,73333,-37633,1025,47,181,
31002,28.6,29.5,1020.94,37.84,143342,57859,-28332,1069,75,135,
31022,28.6,29.4,1020.94,37.83,143342,31136,8771,1195,114,80,
31041,28.6,29.5,1020.94,37.86,143342,16677,35341,1361,167,-24,
31061,28.6,29.3,1020.94,37.82,143342,19923,15750,1358,197,-101,
31081,28.6,29.4,1020.95,37.73,143342,40175,-35271,1263,215,-187,
31101,28.6,29.4,1020.96,37.64,143342,45080,-55243,1179,200,-260,
31121,28.6,29.5,1020.98,37.49,143342,29474,5748,1132,166,-279,
31141,28.6,29.4,1021.00,37.36,143342,23996,66303,1055,141,-280,
31163,28.6,29.4,1021.01,37.27,143342,-21603,51743,1008,97,-143,
31182,28.6,29.4,1021.02,37.18,143342,-48400,17351,965,59,-73,
31201,28.6,29.5,1021.04,36.99,143342,-51476,-144,971,26,4,
31221,28.6,29.4,1021.06,36.80,143342,-19210,12206,1235,5,45,
31241,28.6,29.3,1021.08,36.62,143342,26958,26061,1265,-1,37,
31261,28.6,29.4,1021.10,36.47,143132,55195,36701,1203,-14,-11,
31280,28.6,29.4,1021.12,36.28,123716,38482,56630,1057,-16,-92,
31301,28.6,29.3,1021.14,36.15,80889,-11103,63485,932,13,-178,
31320,28.6,29.2,1021.16,35.96,67541,-50058,39138,880,33,-205,
31340,28.6,29.4,1021.17,35.88,75018,-31565,3605,933,42,-209,
31360,28.6,29.3,1021.18,35.77,87714,26293,1741,1117,43,-222,
31380,28.6,29.3,1021.18,35.72,93629,43553,52631,1226,67,-271,
31400,28.6,29.3,1021.19,35.67,114183,15295,85238,1290,93,-306,
31420,28.6,29.3,1021.20,35.61,140669,-5871,73937,1260,103,-315,
31440,28.6,29.4,1021.21,35.48,143342,-14809,41168,1228,99,-333,
31460,28.6,29.4,1021.22,35.39,143342,-12569,17985,1164,84,-336,
31480,28.6,29.3,1021.23,35.31,143342,20916,33263,1140,62,-368,
31499,28.6,29.3,1021.25,35.15,143342,44432,64181,1052,60,-417,
31520,28.6,29.3,1021.27,35.01,143342,26621,73263,1020,42,-406,
31539,28.6,29.2,1021.28,34.88,143342,-805,64321,1105,17,-369,
31559,28.6,29.4,1021.29,34.79,143342,-7013,50719,1163,-12,-316,
31579,28.6,29.4,1021.29,34.77,143342,6352,41510,1237,-29,-290,
31599,28.6,29.5,1021.30,34.74,143342,22684,40840,1191,-66,-263,
31620,28.6,29.3,1021.29,34.80,141684,25965,37826,1161,-129,-192,
31640,28.6,29.2,1021.28,34.86,97273,12775,49398,993,-138,-190,
31660,28.6,29.2,1021.28,34.88,13483,2576,40328,938,-131,-195,
31679,28.6,29.2,1021.28,34.92,-62881,-498,16135,875,-118,-184,
31730,28.6,29.2,1021.28,34.93,-142970,20230,-20549,922,-84,-107,
31739,28.6,29.5,1021.28,34.88,-143342,26061,-15815,953,-69,-103,
31758,28.6,29.3,1021.29,34.84,-143342,9795,-634,994,-56,-87,
31778,28.6,29.4,1021.29,34.79,-143342,-12761,11943,965,-44,-79,
31798,28.6,29.3,1021.30,34.70,-143342,-21048,1846,907,-45,-44,
31818,28.6,29.3,1021.32,34.58,-143342,-4926,-26040,973,-48,-7,
31838,28.6,29.4,1021.33,34.50,-143342,34671,-35848,948,-57,-2,
31858,28.6,29.3,1021.35,34.33,-143342,60458,-18112,868,-58,-54,
31878,28.6,29.3,1021.36,34.20,-143342,40153,-5998,834,-54,-118,
31898,28.6,29.4,1021.38,34.04,-143342,-14529,-15623,829,-62,-100,
31918,28.6,29.2,1021.40,33.90,-143342,-32025,-28341,935,-59,-72,
31938,28.6,29.3,1021.41,33.82,-143342,485,-16598,1030,-41,-95,
31958,28.6,29.3,1021.41,33.78,-143342,40818,6055,1114,5,-144,
31978,28.6,29.4,1021.41,33.82,-143342,65065,10994,911,39,-209,
31997,28.5,29.2,1021.39,33.93,-143342,55177,9030,903,81,-242,
32017,28.5,29.3,1021.38,34.06,-143342,18475,10001,859,104,-278,
32037,28.5,29.4,1021.37,34.11,-143342,-24377,-1343,864,124,-276,
32057,28.5,29.2,1021.36,34.18,-143342,-31241,-18554,909,130,-246,
32077,28.5,29.3,1021.36,34.24,-143342,6195,-8614,1000,146,-245,
32098,28.5,29.2,1021.35,34.34,-143342,14021,55868,683,177,-302,
32118,28.5,29.3,1021.34,34.42,-138639,-12306,52311,689,176,-275,
32137,28.5,29.3,1021.33,34.51,-71828,-28752,38775,791,176,-226,
32157,28.5,29.2,1021.32,34.52,36185,-24683,37257,939,172,-215,
32176,28.5,29.3,1021.32,34.57,124324,-5635,49043,964,174,-231,
32197,28.5,29.2,1021.32,34.59,143342,13365,58957,869,189,-265,
32216,28.5,29.2,1021.32,34.55,143342,22649,67506,730,194,-308,
32236,28.5,29.4,1021.33,34.46,143342,28805,84835,851,195,-350,
32256,28.5,29.3,1021.35,34.32,143342,31517,97295,857,203,-390,
32276,28.5,29.4,1021.37,34.10,143342,28035,87727,862,181,-424,
32296,28.5,29.2,1021.39,33.94,143342,32913,80018,953,141,-434,
32316,28.5,29.2,1021.41,33.74,143342,44270,76107,928,89,-412,
32336,28.5,29.3,1021.43,33.60,143342,43977,59128,947,29,-338,
32356,28.5,29.3,1021.44,33.53,143342,46668,50736,894,-26,-266,
32376,28.5,29.3,1021.44,33.50,143342,65594,47831,807,-77,-188,
32395,28.5,29.3,1021.43,33.57,143342,64382,35844,736,-118,-112,
32416,28.5,29.2,1021.43,33.63,143342,33967,21717,745,-137,-35,
32435,28.5,29.2,1021.43,33.65,135152,5635,-2021,754,-140,20,
32455,28.5,29.2,1021.42,33.67,63774,-910,-25440,775,-134,58,
32475,28.5,29.4,1021.42,33.70,-32436,11746,-36102,761,-122,60,
32495,28.5,29.3,1021.41,33.76,-116488,23235,-30108,701,-111,61,
32515,28.5,29.3,1021.42,33.69,-143189,24084,-11462,667,-94,43,
32535,28.5,29.2,1021.42,33.68,-143342,18545,2747,670,-70,39,
32556,28.5,29.2,1021.43,33.63,-143342,14389,-38110,636,-39,25,
32576,28.5,29.3,1021.44,33.49,-143342,12451,-66088,749,-39,14,
32596,28.5,29.3,1021.46,33.37,-143342,10329,-67917,773,-34,14,
32615,28.5,29.3,1021.47,33.26,-143342,4930,-45828,810,-23,12,
32634,28.5,29.2,1021.49,33.11,-143342,-10473,-20111,852,-3,13,
32654,28.5,29.3,1021.50,32.99,-143342,-16047,-5153,851,17,5,
32674,28.5,29.3,1021.53,32.78,-143342,6155,-12827,833,38,-39,
32694,28.5,29.3,1021.54,32.64,-143342,33442,-42791,841,56,-95,
32714,28.5,29.4,1021.56,32.51,-143342,42087,-63608,893,70,-141,
32734,28.5,29.2,1021.57,32.38,-143342,22575,-53843,926,109,-202,
32754,28.5,29.4,1021.57,32.42,-143342,-18309,-41741,961,167,-264,
32774,28.5,29.3,1021.56,32.51,-143342,-43526,-40897,1037,220,-307,
32794,28.5,29.2,1021.54,32.68,-143342,-31460,-43540,1066,257,-332,
32814,28.5,29.3,1021.52,32.87,-143342,245,-35004,1040,270,-376,
32833,28.5,29.3,1021.49,33.06,-143342,20387,-13238,907,281,-403,
32853,28.5,29.2,1021.48,33.20,-143342,13475,-6243,828,265,-409,
32873,28.5,29.2,1021.47,33.22,-143342,-5066,-19718,942,227,-342,
32893,28.5,29.3,1021.47,33.29,-143342,-5796,-20768,1100,194,-274,
32913,28.5,29.3,1021.46,33.35,-118496,16065,-2730,1257,177,-276,
32933,28.5,29.3,1021.46,33.34,22728,42315,14126,1134,170,-324,
32953,28.5,29.4,1021.46,33.35,133905,55733,13965,890,163,-390,
32973,28.5,29.4,1021.46,33.38,143342,50050,27667,767,159,-405,
33025,28.5,29.5,1021.46,33.34,143342,42555,40770,666,165,-335,
33034,28.6,29.4,1021.47,33.26,143342,48326,34549,827,147,-269,
33053,28.6,29.3,1021.48,33.17,143342,56328,42870,913,126,-229,
33073,28.6,29.4,1021.50,33.03,143342,65743,48278,929,115,-226,
33093,28.6,29.2,1021.52,32.81,143342,67799,42227,1003,85,-233,
33112,28.6,29.3,1021.55,32.56,143342,67510,23340,1205,20,-219,
33132,28.6,29.3,1021.57,32.38,143342,41825,-3316,845,-83,-158,
33152,28.6,29.2,1021.59,32.21,142502,-5145,18318,678,-143,-66,
33172,28.6,29.4,1021.61,32.08,86708,43697,45250,659,-115,-117,
33192,28.6,29.2,1021.63,31.91,-32808,113478,-5700,806,-88,-188,
33212,28.6,29.3,1021.64,31.81,-123130,80447,-69475,1011,-74,-170,
33231,28.6,29.2,1021.65,31.72,-143342,16380,-91341,1207,-44,-128,
33251,28.6,29.3,1021.66,31.61,-143342,450,-66311,1202,7,-152,
33271,28.6,29.2,1021.67,31.53,-143342,6138,-19643,1103,81,-222,
33291,28.6,29.2,1021.68,31.47,-143342,6361,1999,925,119,-235,
33311,28.6,29.2,1021.68,31.40,-143342,30550,-16257,872,124,-173,
33331,28.6,29.2,1021.68,31.41,-143307,67099,-45438,886,130,-132,
33351,28.6,29.3,1021.68,31.41,-116558,54591,-72056,1076,137,-100,
33371,28.6,29.2,1021.69,31.36,-9992,4256,-74151,1185,143,-52,
33390,28.6,29.3,1021.69,31.32,104461,-17718,-43404,1155,123,8,
33411,28.6,29.3,1021.70,31.31,142909,12267,5411,1142,132,50,
33430,28.6,29.3,1021.70,31.28,143342,50640,23677,1100,180,26,
33450,28.6,29.3,1021.71,31.17,143342,62461,-13886,969,228,-46,
33470,28.6,29.2,1021.73,31.02,143342,26639,-70612,1001,229,-50,
33490,28.6,29.2,1021.75,30.82,143342,-29601,-45626,1149,213,27,
33510,28.6,29.2,1021.78,30.62,143342,-20356,32414,1086,267,7,
33531,28.6,29.3,1021.81,30.35,143342,16104,-17915,1060,378,-278,
33551,28.6,29.2,1021.83,30.13,143342,-30826,-13326,1144,399,-340,
33571,28.6,29.1,1021.86,29.92,143342,-39655,46165,1150,427,-427,
33590,28.6,29.3,1021.87,29.81,143342,2248,88204,1055,440,-533,
33609,28.6,29.3,1021.87,29.80,143342,35577,84844,898,392,-557,
33629,28.6,29.3,1021.87,29.83,143342,13413,82718,764,305,-419,
33650,28.6,29.2,1021.86,29.89,143342,-11379,103853,802,231,-243,
33669,28.6,29.4,1021.85,29.94,143342,-14315,98783,909,153,-85,
33689,28.6,29.3,1021.83,30.11,143342,-13978,78509,996,87,76,
33709,28.6,29.3,1021.82,30.20,143342,-7205,61302,950,53,211,
33729,28.6,29.3,1021.83,30.15,143342,988,36146,911,46,292,
33749,28.6,29.3,1021.84,30.07,143342,4151,15815,901,31,331,
33769,28.6,29.2,1021.84,30.05,143342,16467,18200,810,29,326,
33789,28.6,29.4,1021.85,30.02,143342,33394,35455,770,42,326,
33809,28.6,29.4,1021.85,30.01,143342,38088,65331,773,85,294,
33828,28.6,29.3,1021.84,30.05,143342,30012,78277,848,135,237,
33849,28.6,29.5,1021.84,30.07,143342,7188,48768,858,175,190,
33868,28.6,29.2,1021.83,30.12,143342,-23896,19228,942,217,166,
33888,28.6,29.4,1021.84,30.09,143342,-25970,32694,1010,274,120,
33908,28.6,29.4,1021.84,30.03,143342,22045,49424,974,358,0,
33928,28.6,29.3,1021.85,29.96,143342,70660,24202,814,450,-204,
33948,28.6,29.3,1021.88,29.76,143342,74510,-4305,825,515,-401,
33968,28.6,29.3,1021.90,29.53,143342,49144,22610,960,536,-552,
33988,28.6,29.2,1021.93,29.24,143342,40810,95318,1029,529,-664,
34008,28.6,29.3,1021.97,28.93,143342,71128,104221,1113,337,-653,
34029,28.6,29.3,1021.99,28.75,143342,16590,89468,1019,186,-419,
34048,28.6,29.3,1022.00,28.64,143342,-24171,105634,946,78,-158,
34067,28.6,29.3,1022.01,28.60,143342,-30738,60558,981,-4,85,
34087,28.6,29.3,1022.01,28.56,143342,560,4541,1074,-69,271,
34107,28.6,29.2,1022.02,28.47,143342,56131,-16896,1039,-111,341,
34127,28.6,29.2,1022.03,28.40,143342,68547,-13715,1030,-117,331,
34147,28.6,29.3,1022.04,28.34,130221,38176,10215,1080,-104,292,
34167,28.6,29.4,1022.04,28.29,44865,13711,25755,1031,-88,279,
34187,28.6,29.3,1022.05,28.23,-51870,9690,11405,1040,-81,272,
34207,28.6,29.3,1022.06,28.20,-126516,21739,-11851,1044,-72,247,
34227,28.6,29.4,1022.07,28.10,-143342,51165,-28883,1003,-49,194,
34247,28.6,29.4,1022.07,28.05,-143342,70035,-35844,938,-40,135,
34266,28.6,29.3,1022.08,28.01,-143342,48343,-22780,904,-40,92,
34286,28.6,29.3,1022.09,27.89,-143342,2668,-7017,967,-23,72,
34338,28.6,29.4,1022.12,27.65,-143342,54223,-15106,1037,39,-66,
34352,28.6,29.4,1022.14,27.46,-143342,74453,-14599,1012,45,-121,
34371,28.6,29.3,1022.17,27.20,-143342,48348,-8194,991,53,-147,
34390,28.6,29.3,1022.19,27.04,-143342,8780,-975,1000,68,-126,
34409,28.6,29.2,1022.21,26.85,-143342,-1876,4917,1081,74,-77,
34428,28.6,29.2,1022.23,26.66,-143342,16353,14030,1085,71,-38,
34448,28.6,29.2,1022.25,26.50,-139597,45661,29780,1009,58,-41,
34467,28.6,29.3,1022.28,26.31,-81768,62912,45701,981,55,-55,
34486,28.6,29.4,1022.29,26.14,17626,49490,47293,959,65,-65,
34506,28.6,29.4,1022.32,25.95,112140,16629,33053,1038,59,-60,
34526,28.6,29.4,1022.33,25.88,143123,-2174,29631,1082,46,-46,
34545,28.6,29.3,1022.33,25.79,143342,17176,34282,1089,29,-61,
34565,28.6,29.2,1022.34,25.75,143342,50001,43203,1052,11,-74,
34585,28.6,29.3,1022.35,25.69,143342,62002,43767,1010,4,-85,
34605,28.6,29.2,1022.35,25.67,143342,47722,25348,1005,-18,-71,
34625,28.6,29.4,1022.35,25.67,143342,24193,8946,1022,-54,-35,
34645,28.6,29.3,1022.34,25.71,143342,8093,17005,1061,-94,9,
34665,28.6,29.2,1022.35,25.64,142900,13343,24469,1049,-110,61,
34685,28.6,29.4,1022.36,25.61,112035,37944,5901,1026,-118,100,
